,w_gyroscope_time,w_gyroscope_x,w_gyroscope_y,w_gyroscope_z
0,2023-04-08 16:58:13.883,0.40296668,0.44204223,0.20270446
1,2023-04-08 16:58:13.884,0.48722336,0.5262989,0.1746189
2,2023-04-08 16:58:13.885,0.53484666,0.5885756,0.16485001
3,2023-04-08 16:58:13.926,0.5653745,0.6337567,0.16362889
4,2023-04-08 16:58:13.927,0.5519422,0.6569578,0.17217667
5,2023-04-08 16:58:13.968,0.50554,0.63742,0.18316667
6,2023-04-08 16:58:13.969,0.45303226,0.6007867,0.19415668
7,2023-04-08 16:58:14.014,0.41762,0.5678167,0.21735778
8,2023-04-08 16:58:14.061,0.34801668,0.5360678,0.2283478
9,2023-04-08 16:58:14.062,0.18316667,0.53851,0.22590557
10,2023-04-08 16:58:14.063,0.01099,0.66306335,0.19782001
11,2023-04-08 16:58:14.063,-0.09036223,0.8315767,0.17339778
12,2023-04-08 16:58:14.103,-0.09402556,0.96712005,0.18438779
13,2023-04-08 16:58:14.104,-0.035412222,1.0281756,0.21613668
14,2023-04-08 16:58:14.104,0.0,1.1185378,0.23201112
15,2023-04-08 16:58:14.150,0.037854444,1.3151367,0.24300112
16,2023-04-08 16:58:14.151,0.081814446,1.5251678,0.23811668
17,2023-04-08 16:58:14.194,0.14409111,1.6228567,0.20514667
18,2023-04-08 16:58:14.197,0.17095557,1.6423945,0.17095557
19,2023-04-08 16:58:14.240,0.18072446,1.7168823,0.15019667
20,2023-04-08 16:58:14.242,0.18683001,1.8646368,0.15874445
21,2023-04-08 16:58:14.242,0.20514667,2.0307078,0.15386
22,2023-04-08 16:58:14.285,0.14897557,2.2163167,0.13432223
23,2023-04-08 16:58:14.287,0.11356334,2.4324534,0.13920668
24,2023-04-08 16:58:14.333,0.2503278,2.6571379,0.19049335
25,2023-04-08 16:58:14.333,0.5678167,2.7743645,0.24544334
26,2023-04-08 16:58:14.337,0.9524667,2.834199,0.27108666
27,2023-04-08 16:58:14.378,1.2638501,2.9404356,0.2820767
28,2023-04-08 16:58:14.379,1.3676445,3.010039,0.31871
29,2023-04-08 16:58:14.464,1.2491968,3.0833056,0.3492378
30,2023-04-08 16:58:14.465,1.2076789,3.1443613,0.34679556
31,2023-04-08 16:58:14.466,1.2003523,3.1150546,0.33580557
32,2023-04-08 16:58:14.466,1.1661612,3.0124812,0.3052778
33,2023-04-08 16:58:14.509,1.1222012,2.9355512,0.28329778
34,2023-04-08 16:58:14.553,1.0709145,2.9062445,0.26009667
35,2023-04-08 16:58:14.555,1.0977789,2.8476312,0.15141778
36,2023-04-08 16:58:14.556,1.0477134,2.6156201,0.123332225
37,2023-04-08 16:58:14.556,0.89385337,2.3408701,0.13920668
38,2023-04-08 16:58:14.600,0.69237006,2.0758889,0.14409111
39,2023-04-08 16:58:14.601,0.45181113,1.8402145,0.14042778
40,2023-04-08 16:58:14.602,0.30039334,1.6521634,0.15386
41,2023-04-08 16:58:14.645,0.36511225,1.5080723,0.20881
42,2023-04-08 16:58:14.646,0.5250778,1.3688656,0.24300112
43,2023-04-08 16:58:14.646,0.7131289,1.2540811,0.2503278
44,2023-04-08 16:58:14.692,0.6191034,1.1930256,0.12455334
45,2023-04-08 16:58:14.693,0.14409111,1.119759,-0.025643334
46,2023-04-08 16:58:14.733,-0.40540892,1.1026634,-0.102573335
47,2023-04-08 16:58:14.734,-0.8669889,1.0953367,-0.078151114
48,2023-04-08 16:58:14.779,-1.1905833,1.0916734,-0.017095556
49,2023-04-08 16:58:14.780,-1.2882723,1.009859,0.12577444
50,2023-04-08 16:58:14.780,-1.2528601,0.83890337,0.24422224
51,2023-04-08 16:58:14.830,-1.1356333,0.63131446,0.31993112
52,2023-04-08 16:58:14.831,-1.13197,0.37366003,0.29795113
53,2023-04-08 16:58:14.869,-0.95613,-0.042738892,0.25765446
54,2023-04-08 16:58:14.872,-0.49699223,-0.6056711,0.17950334
55,2023-04-08 16:58:14.873,-0.009768889,-0.83401895,0.30894113
56,2023-04-08 16:58:14.918,-0.07693,-0.74609894,0.39686114
57,2023-04-08 16:58:14.919,-0.52019334,-0.6752745,0.15630223
58,2023-04-08 16:58:14.958,-0.91217005,-0.6105556,-0.109900005
59,2023-04-08 16:58:14.959,-0.81326,-0.47379112,-0.04151778
60,2023-04-08 16:58:15.049,-0.5030978,-0.30283555,0.2295689
61,2023-04-08 16:58:15.051,0.05250778,-0.25765446,0.32481557
62,2023-04-08 16:58:15.052,0.36877558,-0.24910668,0.4701278
63,2023-04-08 16:58:15.052,0.6007867,-0.28940335,0.6972545
64,2023-04-08 16:58:15.053,0.5470578,-0.3174889,0.8975167
65,2023-04-08 16:58:15.095,0.29306668,-0.31993112,0.9414767
66,2023-04-08 16:58:15.096,-0.11600556,-0.31260446,0.8743156
67,2023-04-08 16:58:15.096,-0.5739222,-0.21003112,0.7717422
68,2023-04-08 16:58:15.142,-0.8205867,-0.11356334,0.6899278
69,2023-04-08 16:58:15.187,-0.6227667,-0.064718895,0.7546467
70,2023-04-08 16:58:15.192,-0.37976557,0.04029667,0.97688895
71,2023-04-08 16:58:15.195,-0.31871,0.11234222,1.1673822
72,2023-04-08 16:58:15.230,-0.54950005,0.05250778,1.1686034
73,2023-04-08 16:58:15.232,-0.9365923,-0.07570889,1.0025322
74,2023-04-08 16:58:15.234,-1.2870512,-0.21003112,0.83890337
75,2023-04-08 16:58:15.275,-1.2894934,-0.3382478,0.7668578
76,2023-04-08 16:58:15.276,-0.96589893,-0.4359367,0.76441556
77,2023-04-08 16:58:15.323,-0.60445005,-0.46280113,0.71801335
78,2023-04-08 16:58:15.325,-0.44448447,-0.39197668,0.6349778
79,2023-04-08 16:58:15.325,-0.3858711,-0.2942878,0.5482789
80,2023-04-08 16:58:15.365,-0.37732336,-0.22346334,0.4713489
81,2023-04-08 16:58:15.366,-0.3724389,-0.23567446,0.36999667
82,2023-04-08 16:58:15.408,-0.29917222,-0.3260367,0.2613178
83,2023-04-08 16:58:15.409,-0.18194556,-0.4151778,0.15874445
84,2023-04-08 16:58:15.456,-0.17828223,-0.51164556,0.0012211112
85,2023-04-08 16:58:15.459,-0.30649891,-0.6068922,-0.15141778
86,2023-04-08 16:58:15.463,-0.45059,-0.65329444,-0.26742333
87,2023-04-08 16:58:15.546,-0.62643003,-0.6655056,-0.39197668
88,2023-04-08 16:58:15.547,-0.7656367,-0.6569578,-0.55438447
89,2023-04-08 16:58:15.548,-0.7656367,-0.66062117,-0.6838223
90,2023-04-08 16:58:15.549,-0.73755115,-0.71557117,-0.8401245
91,2023-04-08 16:58:15.588,-0.67039,-0.7986067,-0.9952056
92,2023-04-08 16:58:15.589,-0.5519422,-0.84623003,-1.07702
93,2023-04-08 16:58:15.590,-0.4371578,-0.90240115,-1.1539501
94,2023-04-08 16:58:15.636,-0.44570556,-0.9280445,-1.2491968
95,2023-04-08 16:58:15.638,-0.48356003,-0.95613,-1.3310112
96,2023-04-08 16:58:15.681,-0.42250445,-0.9463611,-1.3358957
97,2023-04-08 16:58:15.682,-0.3052778,-0.8816423,-1.284609
98,2023-04-08 16:58:15.683,-0.1856089,-0.7888378,-1.21989
99,2023-04-08 16:58:15.725,-0.057392225,-0.7167922,-1.1661612
100,2023-04-08 16:58:15.726,0.0024422223,-0.63742,-1.1283067
101,2023-04-08 16:58:15.769,-0.028085556,-0.5885756,-1.1148745
102,2023-04-08 16:58:15.771,-0.024422223,-0.5678167,-1.0977789
103,2023-04-08 16:58:15.771,-0.02075889,-0.59956557,-1.0990001
104,2023-04-08 16:58:15.818,-0.078151114,-0.66428447,-1.1075479
105,2023-04-08 16:58:15.819,-0.19049335,-0.7558678,-1.130749
106,2023-04-08 16:58:15.858,-0.24300112,-0.8425667,-1.1295278
107,2023-04-08 16:58:15.860,-0.24666445,-0.9085067,-1.1038845
108,2023-04-08 16:58:15.901,-0.20514667,-0.95857227,-1.1246433
109,2023-04-08 16:58:15.902,-0.23811668,-1.0135223,-1.1795933
110,2023-04-08 16:58:15.903,-0.34801668,-1.0257334,-1.1820356
111,2023-04-08 16:58:15.947,-0.3504589,-1.0257334,-1.1441811
112,2023-04-08 16:58:15.947,-0.22224224,-1.0428289,-1.0855678
113,2023-04-08 16:58:15.991,-0.13188,-1.0599245,-1.0232911
114,2023-04-08 16:58:16.041,-0.08059334,-1.0367234,-0.96223557
115,2023-04-08 16:58:16.041,-0.06105556,-0.99032116,-0.8779789
116,2023-04-08 16:58:16.042,-0.17339778,-0.9365923,-0.81081784
117,2023-04-08 16:58:16.085,-0.34069002,-0.88286334,-0.80593336
118,2023-04-08 16:58:16.086,-0.4273889,-0.7949434,-0.7900589
119,2023-04-08 16:58:16.088,-0.36389112,-0.70946556,-0.75098336
120,2023-04-08 16:58:16.135,-0.3602278,-0.68504333,-0.72534
121,2023-04-08 16:58:16.136,-0.42128336,-0.65329444,-0.73999333
122,2023-04-08 16:58:16.137,-0.47867557,-0.5702589,-0.7680789
123,2023-04-08 16:58:16.176,-0.6227667,-0.47257003,-0.79128003
124,2023-04-08 16:58:16.176,-0.8523356,-0.36999667,-0.9720045
125,2023-04-08 16:58:16.219,-1.24187,-0.30039334,-1.240649
126,2023-04-08 16:58:16.220,-1.7083346,-0.33214223,-1.5300523
127,2023-04-08 16:58:16.220,-2.0270445,-0.33214223,-1.6875756
128,2023-04-08 16:58:16.268,-2.0697834,-0.16118668,-1.7046711
129,2023-04-08 16:58:16.269,-1.7657267,0.09402556,-1.6350678
130,2023-04-08 16:58:16.310,-1.3713078,0.3260367,-1.5227256
131,2023-04-08 16:58:16.312,-1.1588345,0.40296668,-1.4641123
132,2023-04-08 16:58:16.358,-1.0928944,0.43471557,-1.3822979
133,2023-04-08 16:58:16.358,-0.9378134,0.5922389,-1.1478444
134,2023-04-08 16:58:16.359,-0.65940005,0.8633256,-0.82425004
135,2023-04-08 16:58:16.401,-0.2185789,0.9634567,-0.6764956
136,2023-04-08 16:58:16.402,0.09280445,0.98055226,-0.5568267
137,2023-04-08 16:58:16.444,0.23323223,0.9817734,-0.40296668
138,2023-04-08 16:58:16.446,0.35900667,1.0025322,-0.25399113
139,2023-04-08 16:58:16.447,0.41884112,1.0355023,-0.11112112
140,2023-04-08 16:58:16.534,0.4798967,1.0684723,0.036633335
141,2023-04-08 16:58:16.536,0.5250778,1.1136534,0.15141778
142,2023-04-08 16:58:16.536,0.63009334,1.1038845,0.30161446
143,2023-04-08 16:58:16.537,0.7021389,1.02207,0.4371578
144,2023-04-08 16:58:16.580,0.78761667,0.94391894,0.54339445
145,2023-04-08 16:58:16.581,0.78395337,0.9634567,0.6032289
146,2023-04-08 16:58:16.582,0.69237006,0.9952056,0.62643003
147,2023-04-08 16:58:16.628,0.54461557,1.020849,0.60933447
148,2023-04-08 16:58:16.628,0.35534334,1.05504,0.5519422
149,2023-04-08 16:58:16.668,-0.012211111,1.12098,0.37610224
150,2023-04-08 16:58:16.671,-0.47867557,1.1832567,0.20026223
151,2023-04-08 16:58:16.671,-0.8645467,1.1160955,0.036633335
152,2023-04-08 16:58:16.715,-0.9170545,1.1417389,-0.036633335
153,2023-04-08 16:58:16.716,-0.8730945,1.2357645,-0.012211111
154,2023-04-08 16:58:16.760,-0.81570226,1.2504178,0.08059334
155,2023-04-08 16:58:16.762,-0.6423045,1.2894934,0.24788557
156,2023-04-08 16:58:16.807,-0.4591378,1.2919356,0.3858711
157,2023-04-08 16:58:16.808,-0.15874445,1.2259957,0.47623336
158,2023-04-08 16:58:16.808,0.081814446,0.96956223,0.5006556
159,2023-04-08 16:58:16.850,0.16607112,0.65940005,0.3834289
160,2023-04-08 16:58:16.850,0.10745778,0.5568267,0.22102112
161,2023-04-08 16:58:16.895,-0.27963445,0.6569578,0.10379445
162,2023-04-08 16:58:16.898,-0.7619734,0.78761667,-0.009768889
163,2023-04-08 16:58:16.898,-1.0037534,0.87065226,-0.10501556
164,2023-04-08 16:58:16.943,-1.1087689,0.8547778,-0.23445335
165,2023-04-08 16:58:16.944,-1.1051056,0.82913446,-0.33214223
166,2023-04-08 16:58:16.983,-1.119759,1.0281756,-0.32481557
167,2023-04-08 16:58:17.030,-1.0196278,1.0990001,-0.35900667
168,2023-04-08 16:58:17.031,-0.85111445,1.0477134,-0.3284789
169,2023-04-08 16:58:17.031,-0.62643003,0.89385337,-0.2942878
170,2023-04-08 16:58:17.076,-0.2075889,0.5153089,-0.23201112
171,2023-04-08 16:58:17.079,0.35778558,0.045181114,-0.14409111
172,2023-04-08 16:58:17.079,1.0855678,-0.58491224,-0.13432223
173,2023-04-08 16:58:17.121,1.6765857,-1.2027946,-0.35168
174,2023-04-08 16:58:17.123,2.2761512,-1.6582689,-0.53118336
175,2023-04-08 16:58:17.162,2.6437056,-1.8292245,-0.5360678
176,2023-04-08 16:58:17.165,2.5313635,-2.40681,-1.18692
177,2023-04-08 16:58:17.165,1.7522945,-2.4849613,-1.295599
178,2023-04-08 16:58:17.212,1.3688656,-2.2041056,-1.5788968
179,2023-04-08 16:58:17.214,1.3774134,-2.1699145,-1.889059
180,2023-04-08 16:58:17.259,1.8389934,-1.90127,-1.9293556
181,2023-04-08 16:58:17.261,2.5618913,-1.6863545,-2.2016635
182,2023-04-08 16:58:17.262,2.6205046,-1.581339,-2.294468
183,2023-04-08 16:58:17.301,2.514268,-1.5202833,-2.3140056
184,2023-04-08 16:58:17.302,2.4373379,-1.6020979,-2.163809
185,2023-04-08 16:58:17.344,2.3384278,-1.6717012,-2.0075068
186,2023-04-08 16:58:17.345,2.6827812,-1.8853956,-1.9085968
187,2023-04-08 16:58:17.346,3.43987,-2.2126534,-1.8878379
188,2023-04-08 16:58:17.394,4.1456723,-1.9879689,-1.7156612
189,2023-04-08 16:58:17.395,2.3335435,-0.5104245,-0.8669889
190,2023-04-08 16:58:17.434,-0.2820767,1.8328879,0.34435335
191,2023-04-08 16:58:17.436,-1.5178412,1.6949023,0.64963114
192,2023-04-08 16:58:17.525,-1.5459267,-0.2942878,0.97566783
193,2023-04-08 16:58:17.526,-1.7693901,-2.0881002,1.7388623
194,2023-04-08 16:58:17.527,-1.62652,-0.9952056,2.8622847
195,2023-04-08 16:58:17.528,-0.71435004,1.2821667,3.778118
196,2023-04-08 16:58:17.529,0.27719223,2.37384,4.3874526
197,2023-04-08 16:58:17.573,0.5885756,2.4580967,4.067521
198,2023-04-08 16:58:17.575,-0.4261678,2.206548,3.2945578
199,2023-04-08 16:58:17.575,-1.075799,1.3713078,2.5130467
200,2023-04-08 16:58:17.616,-1.1771512,0.41151446,1.9501145
201,2023-04-08 16:58:17.618,-1.1808145,-0.039075557,1.6240778
202,2023-04-08 16:58:17.662,-0.66306335,-0.10379445,1.3249056
203,2023-04-08 16:58:17.663,0.051286668,-0.31504667,1.0061955
204,2023-04-08 16:58:17.708,1.3175789,-0.8486723,0.47623336
205,2023-04-08 16:58:17.709,2.5252578,-1.3920667,0.24544334
206,2023-04-08 16:58:17.712,3.7524745,-1.4763234,-0.026864445
207,2023-04-08 16:58:17.753,4.6060314,-1.4860923,-0.4041878
208,2023-04-08 16:58:17.754,4.34105,-1.8231189,-0.5470578
209,2023-04-08 16:58:17.795,3.4264379,-2.1552613,-1.06603
210,2023-04-08 16:58:17.799,2.2993524,-2.4483278,-1.5886656
211,2023-04-08 16:58:17.801,1.0684723,-2.7951233,-1.8280034
212,2023-04-08 16:58:17.839,1.0831256,-2.9367723,-1.9611045
213,2023-04-08 16:58:17.840,2.7780278,-2.4849613,-1.4189311
214,2023-04-08 16:58:17.886,4.8490324,-1.96721,-0.9817734
215,2023-04-08 16:58:17.889,4.4228644,-1.3175789,-1.1661612
216,2023-04-08 16:58:17.931,1.1600556,-0.72411895,-0.90240115
217,2023-04-08 16:58:17.932,-1.7974756,-0.028085556,-0.8779789
218,2023-04-08 16:58:17.933,-4.3801255,0.98055226,-1.0928944
219,2023-04-08 16:58:18.019,-6.162948,2.0148335,-0.80227005
220,2023-04-08 16:58:18.020,-6.3668737,2.1894524,-0.98910004
221,2023-04-08 16:58:18.022,-5.067611,1.3090311,-1.2321012
222,2023-04-08 16:58:18.023,-3.284789,0.5372889,-1.34078
223,2023-04-08 16:58:18.066,-1.6020979,-0.123332225,-1.18692
224,2023-04-08 16:58:18.069,0.76441556,-0.68504333,-1.1234223
225,2023-04-08 16:58:18.070,3.2005324,-1.1600556,-0.8767578
226,2023-04-08 16:58:18.108,4.152999,-1.4006145,-0.45181113
227,2023-04-08 16:58:18.114,3.3043268,-1.4921979,-0.33336335
228,2023-04-08 16:58:18.156,1.6106457,-1.3078101,-0.22712667
229,2023-04-08 16:58:18.156,-0.12089001,-1.0806834,-0.2515489
230,2023-04-08 16:58:18.157,-0.77296335,-1.1771512,-0.52019334
231,2023-04-08 16:58:18.203,-0.05006556,-1.3004833,-0.58979666
232,2023-04-08 16:58:18.204,1.5630223,-1.2528601,-0.5653745
233,2023-04-08 16:58:18.245,3.064989,-1.2467545,-0.35656446
234,2023-04-08 16:58:18.247,4.8636856,-0.90240115,-0.25399113
235,2023-04-08 16:58:18.248,5.888198,-0.67039,-0.06349778
236,2023-04-08 16:58:18.292,6.010309,-0.5006556,0.24178001
237,2023-04-08 16:58:18.293,5.501106,-0.22346334,0.5018767
238,2023-04-08 16:58:18.333,2.8403046,0.6020078,0.94880337
239,2023-04-08 16:58:18.335,0.07937223,1.1881411,0.8315767
240,2023-04-08 16:58:18.425,-0.7485411,1.0867889,0.43471557
241,2023-04-08 16:58:18.427,-1.2345434,0.56049,0.4798967
242,2023-04-08 16:58:18.469,-1.5312734,0.07693,1.0086378
243,2023-04-08 16:58:18.518,-2.7939024,0.12577444,1.2186689
244,2023-04-08 16:58:18.519,-5.9272738,-0.09768889,1.3749712
245,2023-04-08 16:58:18.521,-7.962866,0.102573335,1.0135223
246,2023-04-08 16:58:18.522,-7.6612515,0.27108666,0.36755446
247,2023-04-08 16:58:18.561,-6.4950905,-0.15508112,-0.31993112
248,2023-04-08 16:58:18.565,-4.7012777,-0.5568267,-0.9549089
249,2023-04-08 16:58:18.566,-2.4666445,-0.4383789,-1.0196278
250,2023-04-08 16:58:18.566,-0.34801668,-0.22468445,-1.0733567
251,2023-04-08 16:58:18.606,0.7326667,-0.11844778,-1.2235534
252,2023-04-08 16:58:18.610,0.5568267,0.06105556,-1.1795933
253,2023-04-08 16:58:18.610,0.045181114,0.23811668,-1.1038845
254,2023-04-08 16:58:18.648,0.44326335,0.36633334,-0.7631945
255,2023-04-08 16:58:18.651,1.5276101,0.3809867,-0.47379112
256,2023-04-08 16:58:18.651,3.4044578,0.28329778,-0.13676445
257,2023-04-08 16:58:18.696,5.767308,0.19415668,0.30894113
258,2023-04-08 16:58:18.702,7.6514826,-0.023201112,0.80104893
259,2023-04-08 16:58:18.702,9.025232,-0.46280113,1.0831256
260,2023-04-08 16:58:18.742,9.610145,-0.58247,1.3175789
261,2023-04-08 16:58:18.744,8.452532,-0.12211112,1.5935501
262,2023-04-08 16:58:18.783,6.010309,0.29184556,2.019718
263,2023-04-08 16:58:18.785,5.0944757,0.75098336,2.361629
264,2023-04-08 16:58:18.831,3.8941236,0.8498934,2.6376002
265,2023-04-08 16:58:18.832,3.0185869,0.83524,2.81344
266,2023-04-08 16:58:18.833,2.6388211,0.65940005,2.4874034
267,2023-04-08 16:58:18.878,1.7767167,0.5092034,1.746189
268,2023-04-08 16:58:18.879,0.27963445,0.18072446,1.0892311
269,2023-04-08 16:58:18.919,-2.1589246,0.15630223,0.91461223
270,2023-04-08 16:58:18.924,-4.3349447,0.5678167,0.8962956
271,2023-04-08 16:58:18.926,-2.7633746,0.66428447,0.28085557
272,2023-04-08 16:58:19.007,-0.7448778,-0.27719223,0.07570889
273,2023-04-08 16:58:19.008,-0.5910178,-0.54339445,0.18438779
274,2023-04-08 16:58:19.009,-1.3212423,-0.2942878,0.07937223
275,2023-04-08 16:58:19.009,-3.2701356,-0.30039334,-0.20148334
276,2023-04-08 16:58:19.055,-4.8600225,-0.34801668,-0.5360678
277,2023-04-08 16:58:19.055,-4.9015403,0.0036633336,-0.4921078
278,2023-04-08 16:58:19.056,-2.603409,0.23201112,-0.5140878
279,2023-04-08 16:58:19.099,0.047623336,-0.37854445,-0.4273889
280,2023-04-08 16:58:19.099,1.5434844,-0.8853056,-0.32725778
281,2023-04-08 16:58:19.144,2.0832157,-0.9463611,-0.4383789
282,2023-04-08 16:58:19.146,1.8243401,-0.92071784,-0.43471557
283,2023-04-08 16:58:19.147,1.2687345,-0.83401895,-0.3602278
284,2023-04-08 16:58:19.192,1.02207,-0.76930004,-0.17950334
285,2023-04-08 16:58:19.194,1.6020979,-0.90240115,0.04396
286,2023-04-08 16:58:19.233,2.4239056,-1.06603,0.11844778
287,2023-04-08 16:58:19.236,2.6070724,-1.1160955,0.1306589
288,2023-04-08 16:58:19.280,2.5399113,-0.97078335,0.21247335
289,2023-04-08 16:58:19.281,2.3604078,-0.8535567,0.26864445
290,2023-04-08 16:58:19.282,1.7584001,-0.76075226,0.3809867
291,2023-04-08 16:58:19.328,1.229659,-0.34313223,0.5653745
292,2023-04-08 16:58:19.329,1.1087689,-0.20881,0.68504333
293,2023-04-08 16:58:19.369,1.3163579,-0.63986224,0.79128003
294,2023-04-08 16:58:19.372,1.4689968,-0.5788067,0.94391894
295,2023-04-08 16:58:19.372,1.0147433,-0.07448778,1.1454023
296,2023-04-08 16:58:19.415,-0.06349778,-0.048844445,1.16494
297,2023-04-08 16:58:19.417,-0.47501224,0.064718895,1.0867889
298,2023-04-08 16:58:19.459,0.014653334,0.0012211112,0.9866578
299,2023-04-08 16:58:19.509,0.4566956,-0.03052778,1.185699
300,2023-04-08 16:58:19.512,0.5836911,0.034191113,1.3004833
301,2023-04-08 16:58:19.513,0.02198,0.05617111,1.3688656
302,2023-04-08 16:58:19.551,-1.1295278,0.051286668,1.3175789
303,2023-04-08 16:58:19.595,-2.0136123,0.13798556,1.3310112
304,2023-04-08 16:58:19.596,-2.1686933,0.10379445,1.3786345
305,2023-04-08 16:58:19.598,-1.8512045,-0.01099,1.5740123
306,2023-04-08 16:58:19.599,-1.6191934,-0.43105224,1.5947711
307,2023-04-08 16:58:19.642,-1.3566545,-0.6117767,1.5654645
308,2023-04-08 16:58:19.645,-1.2528601,-0.38465002,1.4983034
309,2023-04-08 16:58:19.646,-1.5727912,-0.35290113,1.5215045
310,2023-04-08 16:58:19.686,-1.9281346,-0.70946556,1.5935501
311,2023-04-08 16:58:19.688,-1.6936811,-1.1356333,1.5825601
312,2023-04-08 16:58:19.731,-0.94391894,-1.1612767,1.6130879
313,2023-04-08 16:58:19.732,0.109900005,-1.0990001,1.5251678
314,2023-04-08 16:58:19.733,0.7631945,-0.6471889,1.1417389
315,2023-04-08 16:58:19.775,0.81936556,-0.34801668,0.96589893
316,2023-04-08 16:58:19.776,0.83768225,-0.4261678,0.56171113
317,2023-04-08 16:58:19.821,0.65940005,-0.50554,0.36267
318,2023-04-08 16:58:19.824,0.3382478,-0.82913446,0.05250778
319,2023-04-08 16:58:19.825,-0.23567446,-0.6655056,-0.25521225
320,2023-04-08 16:58:19.866,-0.36389112,-0.04151778,-0.4383789
321,2023-04-08 16:58:19.868,-0.3174889,-0.30649891,-0.39808223
322,2023-04-08 16:58:19.910,0.08425667,-0.54095227,-0.42250445
323,2023-04-08 16:58:19.912,0.44692668,-0.2185789,-0.48356003
324,2023-04-08 16:58:20.000,0.3370267,-0.12089001,-0.36755446
325,2023-04-08 16:58:20.002,0.05617111,-0.04396,-0.24544334
326,2023-04-08 16:58:20.005,-0.19782001,-0.045181114,-0.21369445
327,2023-04-08 16:58:20.006,-0.12211112,-0.11356334,-0.18072446
328,2023-04-08 16:58:20.007,0.14653334,-0.07326667,-0.13676445
329,2023-04-08 16:58:20.046,0.49455002,0.01099,-0.05006556
330,2023-04-08 16:58:20.048,0.6691689,0.01099,0.12089001
331,2023-04-08 16:58:20.049,0.57514334,0.04151778,0.21613668
332,2023-04-08 16:58:20.091,0.7009178,0.045181114,0.25521225
333,2023-04-08 16:58:20.093,0.71801335,-0.009768889,0.28818223
334,2023-04-08 16:58:20.136,0.58491224,-0.123332225,0.34069002
335,2023-04-08 16:58:20.140,0.5104245,-0.24544334,0.36389112
336,2023-04-08 16:58:20.181,0.45425335,-0.27841336,0.3931978
337,2023-04-08 16:58:20.182,0.5128667,-0.2955089,0.50676113
338,2023-04-08 16:58:20.183,0.58613336,-0.42372558,0.52141446
339,2023-04-08 16:58:20.226,0.37488112,-0.5556056,0.5519422
340,2023-04-08 16:58:20.227,0.06349778,-0.57636446,0.47257003
341,2023-04-08 16:58:20.269,-0.2295689,-0.61544,0.41151446
342,2023-04-08 16:58:20.272,-0.46646446,-0.56293225,0.35412225
343,2023-04-08 16:58:20.273,-0.60445005,-0.44692668,0.32115224
344,2023-04-08 16:58:20.318,-0.67283225,-0.3944189,0.26376
345,2023-04-08 16:58:20.320,-0.70458114,-0.2613178,0.21369445
346,2023-04-08 16:58:20.358,-0.6325356,-0.11234222,0.19415668
347,2023-04-08 16:58:20.361,-0.51653004,0.12943779,0.15019667
348,2023-04-08 16:58:20.405,-0.43105224,0.32970002,0.06716111
349,2023-04-08 16:58:20.406,-0.3370267,0.39197668,-0.051286668
350,2023-04-08 16:58:20.408,-0.14287001,0.2955089,-0.22590557
351,2023-04-08 16:58:20.494,-0.023201112,0.5287411,-0.32481557
352,2023-04-08 16:58:20.496,-0.012211111,0.7937223,-0.39686114
353,2023-04-08 16:58:20.498,0.07326667,0.8962956,-0.43471557
354,2023-04-08 16:58:20.499,0.34435335,0.9829945,-0.44692668
355,2023-04-08 16:58:20.539,0.7204556,1.0416079,-0.43349445
356,2023-04-08 16:58:20.542,1.0892311,1.0074167,-0.43105224
357,2023-04-08 16:58:20.543,1.3566545,0.9549089,-0.38709223
358,2023-04-08 16:58:20.583,1.4140468,0.8181445,-0.3809867
359,2023-04-08 16:58:20.586,1.2174479,0.65329444,-0.3382478
360,2023-04-08 16:58:20.634,0.8975167,0.48966557,-0.2735289
361,2023-04-08 16:58:20.636,0.60811335,0.30039334,-0.21125223
362,2023-04-08 16:58:20.637,0.39808223,0.11356334,-0.14287001
363,2023-04-08 16:58:20.676,0.2625389,0.11356334,-0.03052778
364,2023-04-08 16:58:20.677,0.102573335,0.07204556,0.0036633336
365,2023-04-08 16:58:20.718,0.024422223,-0.14164889,-0.0048844446
366,2023-04-08 16:58:20.721,-0.034191113,-0.17217667,0.06349778
367,2023-04-08 16:58:20.764,-0.09524667,-0.07693,0.13432223
368,2023-04-08 16:58:20.767,-0.20026223,-0.28818223,0.036633335
369,2023-04-08 16:58:20.809,-0.30649891,-0.059834447,0.13432223
370,2023-04-08 16:58:20.812,-0.13798556,0.037854444,0.17584
371,2023-04-08 16:58:25.220,1.1222012,-0.24910668,-0.82425004
372,2023-04-08 16:58:25.221,1.1612767,-0.34679556,-1.0477134
373,2023-04-08 16:58:25.272,1.1283067,-0.44326335,-1.2772822
374,2023-04-08 16:58:25.276,1.020849,-0.50676113,-1.4983034
375,2023-04-08 16:58:25.305,0.8914111,-0.56171113,-1.7058923
376,2023-04-08 16:58:25.306,0.75953114,-0.60933447,-1.8976067
377,2023-04-08 16:58:25.351,0.62154555,-0.61544,-2.0612357
378,2023-04-08 16:58:25.351,0.48111778,-0.6142189,-2.2102113
379,2023-04-08 16:58:25.352,0.36633334,-0.5702589,-2.2883623
380,2023-04-08 16:58:25.442,0.32237336,-0.5470578,-2.31889
381,2023-04-08 16:58:25.442,0.34069002,-0.53484666,-2.3249958
382,2023-04-08 16:58:25.442,0.37366003,-0.4383789,-2.2468445
383,2023-04-08 16:58:25.443,0.43471557,-0.30405667,-2.1003113
384,2023-04-08 16:58:25.488,0.54461557,-0.19049335,-1.9147023
385,2023-04-08 16:58:25.536,0.6447467,-0.07448778,-1.691239
386,2023-04-08 16:58:25.536,0.6899278,0.035412222,-1.4665545
387,2023-04-08 16:58:25.536,0.72534,0.12089001,-1.24187
388,2023-04-08 16:58:25.537,0.7314456,0.2075889,-1.02207
389,2023-04-08 16:58:25.625,0.70946556,0.30039334,-0.80104893
390,2023-04-08 16:58:25.626,0.68138003,0.3834289,-0.59834445
391,2023-04-08 16:58:25.627,0.6459678,0.46646446,-0.38831335
392,2023-04-08 16:58:25.628,0.58979666,0.53118336,-0.15019667
393,2023-04-08 16:58:25.628,0.5250778,0.5775856,0.091583334
394,2023-04-08 16:58:25.671,0.4921078,0.6007867,0.34313223
395,2023-04-08 16:58:25.672,0.44448447,0.6105556,0.56659555
396,2023-04-08 16:58:25.672,0.37854445,0.61788225,0.7631945
397,2023-04-08 16:58:25.713,0.27475002,0.62643003,0.9304867
398,2023-04-08 16:58:25.714,0.14531223,0.62765115,1.0733567
399,2023-04-08 16:58:25.759,-0.0024422223,0.6191034,1.1710457
400,2023-04-08 16:58:25.761,-0.15508112,0.6007867,1.2382067
401,2023-04-08 16:58:25.804,-0.26620224,0.59346,1.2687345
402,2023-04-08 16:58:25.804,-0.26864445,0.5910178,1.2711767
403,2023-04-08 16:58:25.805,-0.1856089,0.57270116,1.2601867
404,2023-04-08 16:58:25.849,-0.081814446,0.54339445,1.2382067
405,2023-04-08 16:58:25.849,-0.026864445,0.48600224,1.1930256
406,2023-04-08 16:58:25.850,-0.05617111,0.41762,1.0684723
407,2023-04-08 16:58:25.944,-0.12089001,0.3370267,0.89263225
408,2023-04-08 16:58:25.944,-0.20514667,0.2625389,0.6935911
409,2023-04-08 16:58:25.945,-0.26986557,0.18927222,0.5189722
410,2023-04-08 16:58:25.984,-0.2820767,0.12211112,0.36877558
411,2023-04-08 16:58:25.985,-0.2820767,0.046402223,0.24178001
412,2023-04-08 16:58:25.986,-0.30161446,-0.015874445,0.13920668
413,2023-04-08 16:58:26.030,-0.34557447,-0.059834447,0.057392225
414,2023-04-08 16:58:26.030,-0.3809867,-0.081814446,-0.008547778
415,2023-04-08 16:58:26.031,-0.3809867,-0.098910004,-0.042738892
416,2023-04-08 16:58:26.076,-0.32970002,-0.10013112,-0.07204556
417,2023-04-08 16:58:26.077,-0.24055889,-0.11600556,-0.10013112
418,2023-04-08 16:58:26.121,-0.18927222,-0.1306589,-0.14897557
419,2023-04-08 16:58:26.122,-0.1746189,-0.14409111,-0.1965989
420,2023-04-08 16:58:26.122,-0.16973445,-0.1526389,-0.25887558
421,2023-04-08 16:58:26.167,-0.14287001,-0.14897557,-0.30283555
422,2023-04-08 16:58:26.168,-0.07326667,-0.1526389,-0.32237336
423,2023-04-08 16:58:26.211,-0.023201112,-0.15996556,-0.34435335
424,2023-04-08 16:58:26.213,-0.013432222,-0.18072446,-0.37610224
425,2023-04-08 16:58:26.256,-0.034191113,-0.20881,-0.4151778
426,2023-04-08 16:58:26.259,-0.051286668,-0.24055889,-0.45181113
427,2023-04-08 16:58:26.261,-0.07326667,-0.2613178,-0.48356003
428,2023-04-08 16:58:26.299,-0.09036223,-0.26620224,-0.4921078
429,2023-04-08 16:58:26.300,-0.09524667,-0.23933779,-0.48111778
430,2023-04-08 16:58:26.301,-0.08303556,-0.19171445,-0.45181113
431,2023-04-08 16:58:26.343,-0.04029667,-0.1526389,-0.40663
432,2023-04-08 16:58:26.343,0.042738892,-0.10501556,-0.32359445
433,2023-04-08 16:58:26.436,0.15630223,-0.042738892,-0.22346334
434,2023-04-08 16:58:26.437,0.27475002,0.015874445,-0.13188
435,2023-04-08 16:58:26.437,0.35168,0.07693,-0.029306669
436,2023-04-08 16:58:26.438,0.4041878,0.1306589,0.05617111
437,2023-04-08 16:58:26.480,0.4481478,0.14653334,0.12821667
438,2023-04-08 16:58:26.481,0.4481478,0.14164889,0.1746189
439,2023-04-08 16:58:26.481,0.41029334,0.11844778,0.20026223
440,2023-04-08 16:58:26.524,0.3858711,0.08303556,0.20148334
441,2023-04-08 16:58:26.525,0.35168,0.045181114,0.17339778
442,2023-04-08 16:58:26.572,0.3284789,-0.007326667,0.14409111
443,2023-04-08 16:58:26.574,0.28574002,-0.051286668,0.08059334
444,2023-04-08 16:58:26.574,0.19904111,-0.10379445,-0.0048844446
445,2023-04-08 16:58:26.615,0.11356334,-0.15141778,-0.11112112
446,2023-04-08 16:58:26.618,0.05250778,-0.19049335,-0.21491556
447,2023-04-08 16:58:26.658,0.025643334,-0.20636779,-0.2955089
448,2023-04-08 16:58:26.659,0.03297,-0.23079,-0.31993112
449,2023-04-08 16:58:26.706,0.03297,-0.23811668,-0.34801668
450,2023-04-08 16:58:26.707,-0.007326667,-0.24910668,-0.38465002
451,2023-04-08 16:58:26.708,-0.08059334,-0.26742333,-0.4383789
452,2023-04-08 16:58:26.751,-0.18316667,-0.31504667,-0.48844448
453,2023-04-08 16:58:26.752,-0.32237336,-0.38953447,-0.5580478
454,2023-04-08 16:58:26.793,-0.4823389,-0.4689067,-0.65085226
455,2023-04-08 16:58:26.796,-0.6838223,-0.5262989,-0.7522045
456,2023-04-08 16:58:26.796,-0.86943114,-0.5775856,-0.82425004
457,2023-04-08 16:58:26.839,-1.0061955,-0.5922389,-0.8230289
458,2023-04-08 16:58:26.884,-1.0843467,-0.56049,-0.74609894
459,2023-04-08 16:58:26.929,-1.0953367,-0.50676113,-0.57514334
460,2023-04-08 16:58:26.931,-1.0916734,-0.4383789,-0.34557447
461,2023-04-08 16:58:26.931,-1.0831256,-0.35656446,-0.10501556
462,2023-04-08 16:58:26.932,-1.0452712,-0.22224224,0.19293556
463,2023-04-08 16:58:26.973,-0.9378134,-0.037854444,0.54461557
464,2023-04-08 16:58:26.976,-0.6667267,0.16362889,0.92193896
465,2023-04-08 16:58:26.977,-0.24788557,0.3394689,1.28583
466,2023-04-08 16:58:27.018,0.21125223,0.47745445,1.5850023
467,2023-04-08 16:58:27.021,0.53851,0.57148004,1.79137
468,2023-04-08 16:58:27.022,0.67039,0.6288723,1.8792901
469,2023-04-08 16:58:27.067,0.6325356,0.65940005,1.8744056
470,2023-04-08 16:58:27.068,0.48844448,0.6435256,1.7718323
471,2023-04-08 16:58:27.109,0.35656446,0.5800278,1.5752333
472,2023-04-08 16:58:27.110,0.24422224,0.48356003,1.2980411
473,2023-04-08 16:58:27.156,0.14287001,0.35656446,0.96712005
474,2023-04-08 16:58:27.157,-0.0036633336,0.24422224,0.59834445
475,2023-04-08 16:58:27.159,-0.12211112,0.13188,0.2625389
476,2023-04-08 16:58:27.203,-0.18316667,0.018316668,-0.0048844446
477,2023-04-08 16:58:27.204,-0.2295689,-0.07937223,-0.21003112
478,2023-04-08 16:58:27.204,-0.29306668,-0.16240779,-0.36877558
479,2023-04-08 16:58:27.246,-0.38709223,-0.22102112,-0.5018767
480,2023-04-08 16:58:27.247,-0.4689067,-0.25643334,-0.61666113
481,2023-04-08 16:58:27.289,-0.5018767,-0.27719223,-0.71435004
482,2023-04-08 16:58:27.289,-0.53118336,-0.33214223,-0.8303556
483,2023-04-08 16:58:27.334,-0.61544,-0.39686114,-0.9536878
484,2023-04-08 16:58:27.335,-0.72534,-0.43471557,-1.0416079
485,2023-04-08 16:58:27.379,-0.8755367,-0.4359367,-1.1026634
486,2023-04-08 16:58:27.426,-0.8083756,-0.2295689,-1.0403867
487,2023-04-08 16:58:27.427,-0.37610224,0.068382226,-0.77906895
488,2023-04-08 16:58:27.428,0.43227336,0.27719223,-0.3052778
489,2023-04-08 16:58:27.428,1.2980411,0.35168,0.14164889
490,2023-04-08 16:58:27.469,1.5788968,0.2735289,0.47501224
491,2023-04-08 16:58:27.469,1.1844778,0.12577444,0.66062117
492,2023-04-08 16:58:27.473,0.3284789,-0.045181114,0.6801589
493,2023-04-08 16:58:27.516,-0.57514334,-0.18072446,0.57148004
494,2023-04-08 16:58:27.516,-1.1722667,-0.27475002,0.46646446
495,2023-04-08 16:58:27.559,-1.4128256,-0.3162678,0.42128336
496,2023-04-08 16:58:27.564,-1.2150056,-0.36389112,0.41151446
497,2023-04-08 16:58:27.605,-0.72411895,-0.43227336,0.38465002
498,2023-04-08 16:58:27.605,-0.13676445,-0.49455002,0.26864445
499,2023-04-08 16:58:27.606,0.25887558,-0.5262989,0.02075889
500,2023-04-08 16:58:27.651,0.30772,-0.5556056,-0.36755446
501,2023-04-08 16:58:27.653,-0.06105556,-0.59346,-0.8877478
502,2023-04-08 16:58:27.655,-0.60445005,-0.62154555,-1.4079412
503,2023-04-08 16:58:27.694,-1.0061955,-0.63619894,-1.8194556
504,2023-04-08 16:58:27.695,-1.2150056,-0.6423045,-2.0881002
505,2023-04-08 16:58:27.742,-1.2772822,-0.58247,-2.1992211
506,2023-04-08 16:58:27.743,-1.1930256,-0.48356003,-2.163809
507,2023-04-08 16:58:27.784,-1.009859,-0.36999667,-2.0258234
508,2023-04-08 16:58:27.785,-0.7448778,-0.2185789,-1.801139
509,2023-04-08 16:58:27.830,-0.36877558,-0.057392225,-1.5202833
510,2023-04-08 16:58:27.831,-0.015874445,0.09646778,-1.1991311
511,2023-04-08 16:58:27.832,0.2759711,0.23689556,-0.90240115
512,2023-04-08 16:58:27.918,0.5507211,0.35656446,-0.6337567
513,2023-04-08 16:58:27.919,0.7754056,0.35900667,-0.3284789
514,2023-04-08 16:58:27.920,0.7888378,0.40785113,-0.013432222
515,2023-04-08 16:58:27.921,0.5592689,0.4908867,0.25521225
516,2023-04-08 16:58:27.964,0.4151778,0.56293225,0.43960002
517,2023-04-08 16:58:27.965,0.35412225,0.62154555,0.65329444
518,2023-04-08 16:58:27.966,0.30649891,0.6679478,0.9414767
519,2023-04-08 16:58:28.006,0.3174889,0.68504333,1.1954678
520,2023-04-08 16:58:28.006,0.31504667,0.6679478,1.4335845
521,2023-04-08 16:58:28.052,0.30649891,0.66428447,1.6509423
522,2023-04-08 16:58:28.054,0.26009667,0.64963114,1.8145711
523,2023-04-08 16:58:28.054,0.19415668,0.59834445,1.9244711
524,2023-04-08 16:58:28.097,0.057392225,0.5336256,1.9940746
525,2023-04-08 16:58:28.097,-0.20881,0.48111778,2.00018
526,2023-04-08 16:58:28.140,-0.48966557,0.40296668,1.9574412
527,2023-04-08 16:58:28.141,-0.67161113,0.32237336,1.8878379
528,2023-04-08 16:58:28.142,-0.8083756,0.2503278,1.7718323
529,2023-04-08 16:58:28.186,-0.9720045,0.21491556,1.5874445
530,2023-04-08 16:58:28.187,-1.0391656,0.19415668,1.3749712
531,2023-04-08 16:58:28.232,-0.9280445,0.16973445,1.1783723
532,2023-04-08 16:58:28.233,-0.73999333,0.1526389,0.9842156
533,2023-04-08 16:58:28.277,-0.5580478,0.16240779,0.7851745
534,2023-04-08 16:58:28.278,-0.38953447,0.1856089,0.6032289
535,2023-04-08 16:58:28.279,-0.27719223,0.21980001,0.47379112
536,2023-04-08 16:58:28.326,-0.25643334,0.21369445,0.3712178
537,2023-04-08 16:58:28.326,-0.3809867,0.19904111,0.21125223
538,2023-04-08 16:58:28.328,-0.68504333,0.36389112,0.047623336
539,2023-04-08 16:58:28.415,-1.29682,0.7082445,-0.20514667
540,2023-04-08 16:58:28.416,-1.7034501,0.9170545,-0.5873545
541,2023-04-08 16:58:28.417,-1.5178412,0.87920004,-0.72778225
542,2023-04-08 16:58:28.459,-1.06603,0.75953114,-0.6386411
543,2023-04-08 16:58:28.460,-0.7204556,0.66306335,-0.55316335
544,2023-04-08 16:58:28.461,-0.5287411,0.59346,-0.57636446
545,2023-04-08 16:58:28.504,-0.46035892,0.6117767,-0.58613336
546,2023-04-08 16:58:28.506,-0.6386411,0.76930004,-0.6288723
547,2023-04-08 16:58:28.507,-0.81081784,0.9365923,-0.6569578
548,2023-04-08 16:58:28.554,-0.7119078,1.01108,-0.6056711
549,2023-04-08 16:58:28.554,-0.43105224,1.0318389,-0.54950005
550,2023-04-08 16:58:28.555,-0.29795113,1.0733567,-0.52996224
551,2023-04-08 16:58:28.595,-0.24055889,1.0696933,-0.60445005
552,2023-04-08 16:58:28.595,-0.1746189,1.0367234,-0.6801589
553,2023-04-08 16:58:28.639,-0.2295689,0.9280445,-0.8327978
554,2023-04-08 16:58:28.641,-0.3492378,0.8266923,-1.01108
555,2023-04-08 16:58:28.729,-0.4908867,0.7351089,-1.1588345
556,2023-04-08 16:58:28.731,-0.6618422,0.6325356,-1.3444434
557,2023-04-08 16:58:28.732,-0.81326,0.4493689,-1.5874445
558,2023-04-08 16:58:28.732,-0.45425335,0.13676445,-1.5886656
559,2023-04-08 16:58:28.774,-0.01099,-0.14531223,-1.4873134
560,2023-04-08 16:58:28.775,0.39808223,-0.2955089,-1.2345434
561,2023-04-08 16:58:28.776,0.64108336,-0.30772,-0.96712005
562,2023-04-08 16:58:28.776,0.8975167,-0.34801668,-0.6239878
563,2023-04-08 16:58:28.822,1.0159645,-0.32359445,-0.29917222
564,2023-04-08 16:58:28.825,0.75831,-0.26498112,-0.16729222
565,2023-04-08 16:58:28.910,0.33336335,-0.19537778,-0.14531223
566,2023-04-08 16:58:28.912,0.008547778,-0.21369445,-0.13432223
567,2023-04-08 16:58:28.912,-0.30161446,-0.24300112,-0.15752333
568,2023-04-08 16:58:28.954,-0.61788225,-0.29062447,-0.21003112
569,2023-04-08 16:58:28.956,-1.1600556,-0.07570889,-0.3382478
570,2023-04-08 16:58:28.959,-2.151598,0.13554333,-0.57636446
571,2023-04-08 16:58:28.962,-2.6876657,0.5250778,-0.8633256
572,2023-04-08 16:58:29.002,-1.9379034,0.48356003,-0.7546467
573,2023-04-08 16:58:29.003,-1.2638501,0.2869611,-0.57148004
574,2023-04-08 16:58:29.005,-1.5068512,-0.064718895,-0.6020078
575,2023-04-08 16:58:29.045,-1.6509423,-0.5519422,-1.075799
576,2023-04-08 16:58:29.045,-1.5312734,-0.71557117,-1.1331911
577,2023-04-08 16:58:29.089,-1.5483689,-1.0013112,-1.3029256
578,2023-04-08 16:58:29.090,-2.0026224,-1.32979,-1.7938123
579,2023-04-08 16:58:29.135,-2.6131778,-1.4934189,-2.174799
580,2023-04-08 16:58:29.141,-2.7096457,-1.5801178,-2.2492867
581,2023-04-08 16:58:29.179,-2.6974347,-1.3981723,-2.1662512
582,2023-04-08 16:58:29.181,-2.6192834,-1.0819045,-2.2407389
583,2023-04-08 16:58:29.182,-2.514268,-1.119759,-2.3884935
584,2023-04-08 16:58:29.224,-2.4788556,-1.3676445,-2.426348
585,2023-04-08 16:58:29.225,-2.2334123,-1.6082034,-2.3982623
586,2023-04-08 16:58:29.226,-1.9635468,-1.735199,-2.1918945
587,2023-04-08 16:58:29.270,-1.2577446,-1.4726601,-1.8829534
588,2023-04-08 16:58:29.271,0.55438447,-0.82791334,-1.1002212
589,2023-04-08 16:58:29.316,2.4507701,-0.14897557,0.19537778
590,2023-04-08 16:58:29.317,3.06621,-0.31871,1.2479756
591,2023-04-08 16:58:29.357,2.6058512,-0.4921078,1.6460578
592,2023-04-08 16:58:29.405,1.56058,-0.2515489,1.8866167
593,2023-04-08 16:58:29.406,0.7631945,-0.012211111,2.1699145
594,2023-04-08 16:58:29.406,0.8181445,-0.24910668,2.5277002
595,2023-04-08 16:58:29.449,1.4592278,-0.57636446,2.9135711
596,2023-04-08 16:58:29.451,2.0563512,-0.27963445,3.250598
597,2023-04-08 16:58:29.452,2.5203733,-0.07326667,3.6828713
598,2023-04-08 16:58:29.453,2.5948613,0.036633335,3.8697014
599,2023-04-08 16:58:29.498,2.7328467,-0.0048844446,3.955179
600,2023-04-08 16:58:29.498,3.2896736,-0.018316668,4.0907226
601,2023-04-08 16:58:29.585,3.6230369,0.32115224,4.184748
602,2023-04-08 16:58:29.632,3.0259135,0.81326,4.021119
603,2023-04-08 16:58:29.632,2.646148,0.91461223,3.647459
604,2023-04-08 16:58:29.633,3.030798,0.84745115,3.2799046
605,2023-04-08 16:58:29.634,3.6205945,0.8486723,2.968521
606,2023-04-08 16:58:29.675,3.4410913,0.90118,2.5618913
607,2023-04-08 16:58:29.677,2.878159,1.0013112,2.1161857
608,2023-04-08 16:58:29.678,2.2920256,1.2369856,1.6887968
609,2023-04-08 16:58:29.679,1.5850023,1.3725289,1.1844778
610,2023-04-08 16:58:29.718,0.9317078,1.350549,0.8327978
611,2023-04-08 16:58:29.720,0.59468114,1.0721356,0.5568267
612,2023-04-08 16:58:29.720,0.46768558,0.69481224,0.33458444
613,2023-04-08 16:58:29.768,0.23323223,0.39686114,0.20392556
614,2023-04-08 16:58:29.770,-0.009768889,0.098910004,0.03174889
615,2023-04-08 16:58:29.810,-0.43227336,-0.14287001,-0.11234222
616,2023-04-08 16:58:29.814,-1.3224634,-0.19904111,-0.35900667
617,2023-04-08 16:58:29.899,-1.1368545,-0.19293556,-0.38953447
618,2023-04-08 16:58:29.900,-0.30161446,-0.117226675,-0.051286668
619,2023-04-08 16:58:29.902,0.16118668,0.0036633336,0.27963445
620,2023-04-08 16:58:29.903,0.46035892,0.04029667,0.47745445
621,2023-04-08 16:58:29.903,-0.28940335,0.30772,0.26620224
622,2023-04-08 16:58:29.948,-2.591198,1.1112112,-0.1856089
623,2023-04-08 16:58:29.949,-3.955179,1.57157,-0.78395337
624,2023-04-08 16:58:29.950,-3.2322812,1.526389,-0.9512456
625,2023-04-08 16:58:29.989,-1.6033189,1.1918045,-0.8498934
626,2023-04-08 16:58:29.991,-0.58979666,1.0501556,-0.83890337
627,2023-04-08 16:58:30.034,-0.2869611,1.1246433,-0.82425004
628,2023-04-08 16:58:30.036,-0.40052447,1.2150056,-0.7986067
629,2023-04-08 16:58:30.077,-0.7228978,1.3090311,-0.8865267
630,2023-04-08 16:58:30.078,-0.6777167,1.2284378,-0.8266923
631,2023-04-08 16:58:30.080,0.67039,0.5971234,-0.85599893
632,2023-04-08 16:58:30.127,1.7132189,0.018316668,-0.3394689
633,2023-04-08 16:58:30.128,2.2370756,-0.78395337,-0.36755446
634,2023-04-08 16:58:30.129,0.8437878,-0.63742,-0.6764956
635,2023-04-08 16:58:30.170,1.2772822,-0.6874856,-0.50554
636,2023-04-08 16:58:30.171,0.8877478,-0.2845189,-0.0024422223
637,2023-04-08 16:58:30.263,-1.1222012,-0.28818223,-0.29184556
638,2023-04-08 16:58:30.265,-0.7973856,-0.58491224,0.64841
639,2023-04-08 16:58:30.266,-1.1539501,-0.52019334,0.30039334
640,2023-04-08 16:58:30.267,-1.1979101,-0.5580478,-0.21369445
641,2023-04-08 16:58:30.306,-0.8169234,-0.4151778,-0.15508112
642,2023-04-08 16:58:30.308,-0.6056711,-0.22590557,-0.23567446
643,2023-04-08 16:58:30.309,-0.7204556,-0.10379445,-0.4151778
644,2023-04-08 16:58:30.393,-0.98055226,-0.018316668,-0.57148004
645,2023-04-08 16:58:30.394,-1.0965579,0.117226675,-0.6655056
646,2023-04-08 16:58:30.396,-1.1588345,0.3492378,-0.7351089
647,2023-04-08 16:58:30.397,-1.0318389,0.52752,-0.7619734
648,2023-04-08 16:58:30.439,-0.8327978,0.6142189,-0.7265611
649,2023-04-08 16:58:30.442,-0.47501224,0.47257003,-0.7167922
650,2023-04-08 16:58:30.443,-0.15630223,0.23201112,-0.69114894
651,2023-04-08 16:58:30.484,-0.15386,0.18316667,-0.84745115
652,2023-04-08 16:58:30.486,-0.18805112,0.017095556,-0.8547778
653,2023-04-08 16:58:30.529,-0.6068922,-0.045181114,-0.67039
654,2023-04-08 16:58:30.530,-0.95735115,0.21125223,-0.3724389
655,2023-04-08 16:58:30.531,-0.9402556,0.31382558,0.013432222
656,2023-04-08 16:58:30.576,-0.74609894,0.007326667,0.06960334
657,2023-04-08 16:58:30.577,-0.25887558,-0.40296668,-0.0012211112
658,2023-04-08 16:58:30.579,0.43105224,-0.61788225,0.06960334
659,2023-04-08 16:58:30.624,0.75953114,-0.45547447,0.15752333
660,2023-04-08 16:58:30.625,0.4713489,-0.017095556,0.22102112
661,2023-04-08 16:58:30.665,-0.16851334,0.43349445,0.21980001
662,2023-04-08 16:58:30.666,-0.24055889,0.47257003,0.20392556
663,2023-04-08 16:58:30.708,0.14897557,0.3724389,0.21491556
664,2023-04-08 16:58:30.711,0.32237336,0.35168,0.14531223
665,2023-04-08 16:58:30.756,-0.089141116,0.28085557,-0.16851334
666,2023-04-08 16:58:30.757,-0.30161446,0.16607112,-0.23811668
667,2023-04-08 16:58:30.759,-0.57148004,-0.14409111,-0.2613178
668,2023-04-08 16:58:30.802,-1.1246433,-0.11600556,-0.102573335
669,2023-04-08 16:58:30.802,-0.9927634,-0.5006556,0.29673
670,2023-04-08 16:58:30.804,-0.29917222,-0.2075889,0.21369445
671,2023-04-08 16:58:30.891,-0.009768889,-0.035412222,0.12821667
672,2023-04-08 16:58:30.893,0.29917222,-0.04396,0.109900005
673,2023-04-08 16:58:30.894,1.1136534,-0.26498112,0.4261678
674,2023-04-08 16:58:30.895,2.0502455,-0.39564002,0.71923447
675,2023-04-08 16:58:30.935,2.4251268,-0.43105224,0.8779789
676,2023-04-08 16:58:30.939,2.6424847,-0.5104245,1.2125634
677,2023-04-08 16:58:31.024,2.7194145,-0.5800278,1.5642434
678,2023-04-08 16:58:31.025,2.9086869,-0.57148004,1.9061545
679,2023-04-08 16:58:31.070,3.5864034,-0.4481478,2.041698
680,2023-04-08 16:58:31.073,3.6462379,-0.31260446,2.00018
681,2023-04-08 16:58:31.114,3.6425745,-0.014653334,1.801139
682,2023-04-08 16:58:31.117,4.3874526,-0.03052778,1.5068512
683,2023-04-08 16:58:31.118,4.590157,-0.10135223,1.5398211
684,2023-04-08 16:58:31.119,4.0272245,-0.26620224,1.1283067
685,2023-04-08 16:58:31.159,3.7182834,-0.14287001,0.8450089
686,2023-04-08 16:58:31.162,3.3202012,0.08792,0.75098336
687,2023-04-08 16:58:31.163,2.4361167,0.30405667,0.5470578
688,2023-04-08 16:58:31.166,1.7486312,0.5226356,0.3712178
689,2023-04-08 16:58:31.201,1.4580067,0.7387723,0.16607112
690,2023-04-08 16:58:31.202,1.295599,0.78395337,0.028085556
691,2023-04-08 16:58:31.204,0.83768225,0.8633256,-0.16240779
692,2023-04-08 16:58:31.247,0.058613338,1.0855678,-0.5128667
693,2023-04-08 16:58:31.248,-0.70458114,1.4262578,-0.7680789
694,2023-04-08 16:58:31.249,0.50554,0.9072856,-0.52996224
695,2023-04-08 16:58:31.292,4.8062935,-0.30772,1.1954678
696,2023-04-08 16:58:31.293,5.1653004,-0.24910668,2.3579657
697,2023-04-08 16:58:31.384,2.1564822,0.5775856,1.1783723
698,2023-04-08 16:58:31.387,1.1710457,0.92560226,0.72411895
699,2023-04-08 16:58:31.388,1.6582689,0.5336256,0.72411895
700,2023-04-08 16:58:31.389,1.9965167,0.018316668,0.67283225
701,2023-04-08 16:58:31.432,1.7168823,-0.18316667,0.45181113
702,2023-04-08 16:58:31.432,1.4665545,-0.23445335,0.23689556
703,2023-04-08 16:58:31.433,1.625299,-0.36999667,0.21980001
704,2023-04-08 16:58:31.477,1.4824289,-0.38220778,0.15996556
705,2023-04-08 16:58:31.478,1.0623667,-0.09402556,0.31993112
706,2023-04-08 16:58:31.479,0.8413456,0.06960334,0.6191034
707,2023-04-08 16:58:31.520,0.99032116,0.12089001,0.7228978
708,2023-04-08 16:58:31.521,0.9683412,0.3162678,0.65085226
709,2023-04-08 16:58:31.566,0.97078335,0.63009334,0.65329444
710,2023-04-08 16:58:31.568,0.8816423,1.1270856,0.6239878
711,2023-04-08 16:58:31.609,0.42372558,1.746189,0.5360678
712,2023-04-08 16:58:31.612,-0.06594,2.053909,0.4493689
713,2023-04-08 16:58:31.616,-0.4041878,1.7510734,0.29184556
714,2023-04-08 16:58:31.652,-0.6227667,1.3102523,0.09646778
715,2023-04-08 16:58:31.653,-0.5788067,1.1710457,-0.17706113
716,2023-04-08 16:58:31.695,-0.42128336,0.7619734,-0.1965989
717,2023-04-08 16:58:31.696,0.02075889,0.39808223,0.08059334
718,2023-04-08 16:58:31.698,0.20514667,0.26864445,0.22346334
719,2023-04-08 16:58:31.740,0.3260367,0.3492378,0.09524667
720,2023-04-08 16:58:31.743,0.3724389,0.39930335,0.05250778
721,2023-04-08 16:58:31.784,0.23567446,0.30894113,-0.017095556
722,2023-04-08 16:58:31.786,0.2295689,0.21491556,-0.13554333
723,2023-04-08 16:58:31.830,0.5971234,0.047623336,-0.04029667
724,2023-04-08 16:58:31.875,0.7558678,-0.14287001,0.009768889
725,2023-04-08 16:58:31.877,0.7131289,-0.19415668,0.06716111
726,2023-04-08 16:58:31.878,0.5910178,-0.14409111,-0.33336335
727,2023-04-08 16:58:31.920,0.58247,-0.07937223,-0.36267
728,2023-04-08 16:58:31.921,0.44570556,-0.03297,0.014653334
729,2023-04-08 16:58:31.922,0.4689067,0.028085556,0.21369445
730,2023-04-08 16:58:31.923,0.5910178,-0.017095556,0.068382226
731,2023-04-08 16:58:31.965,0.6117767,-0.06960334,-0.089141116
732,2023-04-08 16:58:31.965,0.7631945,-0.18927222,-0.2942878
733,2023-04-08 16:58:32.009,0.74732006,-0.07326667,-0.4041878
734,2023-04-08 16:58:32.011,0.66062117,0.13432223,-0.35534334
735,2023-04-08 16:58:32.056,0.83524,0.27841336,-0.50798225
736,2023-04-08 16:58:32.058,0.5800278,0.3382478,-0.53118336
737,2023-04-08 16:58:32.101,0.41762,0.35778558,-0.60445005
738,2023-04-08 16:58:32.102,0.37488112,0.37488112,-0.52019334
739,2023-04-08 16:58:32.102,0.18316667,0.28574002,-0.5324045
740,2023-04-08 16:58:32.146,0.24300112,0.31382558,-0.48478112
741,2023-04-08 16:58:32.148,-0.0012211112,0.28818223,-0.42861003
742,2023-04-08 16:58:32.151,-0.078151114,0.19293556,-0.2869611
743,2023-04-08 16:58:32.190,-0.32481557,0.37366003,-0.30649891
744,2023-04-08 16:58:32.190,-0.46402225,0.2625389,-0.31016225
745,2023-04-08 16:58:32.237,-0.65451556,0.25887558,-0.3382478
746,2023-04-08 16:58:32.238,-1.2565234,0.13554333,-0.41762
747,2023-04-08 16:58:32.281,-1.6411734,0.36877558,-0.41762
748,2023-04-08 16:58:32.282,-1.4140468,0.66428447,-0.35290113
749,2023-04-08 16:58:32.374,-1.0367234,0.8645467,-0.26742333
750,2023-04-08 16:58:32.377,-0.8486723,0.9463611,-0.13188
751,2023-04-08 16:58:32.380,-0.42372558,0.9317078,-0.16973445
752,2023-04-08 16:58:32.383,-0.09646778,0.8743156,-0.12821667
753,2023-04-08 16:58:32.386,0.09402556,0.7668578,-0.23567446
754,2023-04-08 16:58:32.420,-0.21735778,0.7265611,-0.3284789
