,w_gyroscope_time,w_gyroscope_x,w_gyroscope_y,w_gyroscope_z
0,2023-05-01 13:35:09.009,0.0048844446,0.008547778,0.0012211112
1,2023-05-01 13:35:09.009,0.0,0.0036633336,0.0036633336
2,2023-05-01 13:35:09.060,0.0012211112,-0.0024422223,0.0048844446
3,2023-05-01 13:35:09.063,-0.0061055557,-0.008547778,0.0048844446
4,2023-05-01 13:35:09.098,-0.007326667,-0.0012211112,0.0036633336
5,2023-05-01 13:35:09.099,-0.0024422223,0.0036633336,0.0036633336
6,2023-05-01 13:35:09.143,-0.0024422223,-0.0036633336,-0.0012211112
7,2023-05-01 13:35:09.143,-0.0036633336,-0.014653334,-0.0024422223
8,2023-05-01 13:35:09.243,0.0,-0.009768889,0.0
9,2023-05-01 13:35:09.278,0.0048844446,-0.0061055557,-0.0012211112
10,2023-05-01 13:35:09.278,-0.0012211112,-0.012211111,0.0
11,2023-05-01 13:35:09.279,0.0024422223,-0.009768889,-0.0012211112
12,2023-05-01 13:35:09.322,-0.0012211112,-0.008547778,0.0012211112
13,2023-05-01 13:35:09.323,-0.0012211112,-0.013432222,-0.0012211112
14,2023-05-01 13:35:09.324,0.0024422223,-0.013432222,0.0
15,2023-05-01 13:35:09.325,-0.007326667,-0.015874445,-0.0012211112
16,2023-05-01 13:35:09.367,-0.01099,-0.018316668,-0.0012211112
17,2023-05-01 13:35:09.414,-0.008547778,-0.009768889,-0.0024422223
18,2023-05-01 13:35:09.420,0.0012211112,-0.017095556,0.0024422223
19,2023-05-01 13:35:09.421,0.009768889,-0.013432222,0.0024422223
20,2023-05-01 13:35:09.434,0.0024422223,-0.008547778,0.0048844446
21,2023-05-01 13:35:09.502,0.0048844446,0.0,0.0024422223
22,2023-05-01 13:35:09.503,0.026864445,-0.0024422223,-0.0012211112
23,2023-05-01 13:35:09.506,0.029306669,-0.008547778,-0.0048844446
24,2023-05-01 13:35:09.507,0.017095556,-0.017095556,-0.0061055557
25,2023-05-01 13:35:09.508,0.0024422223,-0.014653334,-0.0012211112
26,2023-05-01 13:35:09.549,-0.0036633336,-0.018316668,0.0
27,2023-05-01 13:35:09.593,-0.0048844446,-0.012211111,0.0048844446
28,2023-05-01 13:35:09.594,-0.0048844446,-0.0061055557,0.0012211112
29,2023-05-01 13:35:09.595,-0.012211111,-0.0024422223,0.0048844446
30,2023-05-01 13:35:09.595,-0.01099,-0.0024422223,0.009768889
31,2023-05-01 13:35:09.615,0.0012211112,-0.0048844446,0.012211111
32,2023-05-01 13:35:09.645,-0.0061055557,-0.01099,0.008547778
33,2023-05-01 13:35:09.646,0.0,-0.009768889,0.0048844446
34,2023-05-01 13:35:09.682,0.01099,-0.0048844446,0.0
35,2023-05-01 13:35:09.692,0.015874445,0.0,0.0024422223
36,2023-05-01 13:35:09.693,0.012211111,0.0,0.0036633336
37,2023-05-01 13:35:09.727,0.0048844446,0.0036633336,0.0
38,2023-05-01 13:35:09.728,0.0036633336,0.0012211112,-0.0012211112
39,2023-05-01 13:35:09.776,0.0012211112,-0.0024422223,0.0
40,2023-05-01 13:35:09.777,-0.0061055557,-0.0012211112,-0.0012211112
41,2023-05-01 13:35:09.778,-0.0061055557,0.0048844446,0.0024422223
42,2023-05-01 13:35:09.818,-0.007326667,0.0036633336,0.0061055557
43,2023-05-01 13:35:09.818,-0.0048844446,0.0,0.0048844446
44,2023-05-01 13:35:09.863,0.0,-0.0048844446,0.0048844446
45,2023-05-01 13:35:09.864,-0.0024422223,-0.008547778,0.0061055557
46,2023-05-01 13:35:09.913,0.0,-0.0024422223,0.0048844446
47,2023-05-01 13:35:09.914,0.007326667,0.013432222,0.009768889
48,2023-05-01 13:35:09.957,0.026864445,0.018316668,0.012211111
49,2023-05-01 13:35:09.958,0.042738892,0.023201112,0.014653334
50,2023-05-01 13:35:09.960,0.048844445,0.018316668,0.014653334
51,2023-05-01 13:35:09.998,0.04396,0.013432222,0.015874445
52,2023-05-01 13:35:09.998,0.036633335,0.012211111,0.014653334
53,2023-05-01 13:35:10.043,0.046402223,0.02198,0.012211111
54,2023-05-01 13:35:10.046,0.048844445,0.018316668,0.009768889
55,2023-05-01 13:35:10.047,0.047623336,0.01099,0.01099
56,2023-05-01 13:35:10.091,0.045181114,0.0,0.01099
57,2023-05-01 13:35:10.093,0.02075889,-0.0036633336,0.01099
58,2023-05-01 13:35:10.132,0.0012211112,0.0024422223,0.008547778
59,2023-05-01 13:35:10.140,0.0061055557,0.0048844446,0.0061055557
60,2023-05-01 13:35:10.180,0.009768889,0.0036633336,0.007326667
61,2023-05-01 13:35:10.181,0.0024422223,0.0,0.007326667
62,2023-05-01 13:35:10.182,-0.0012211112,-0.0036633336,0.01099
63,2023-05-01 13:35:10.225,-0.0012211112,-0.013432222,0.009768889
64,2023-05-01 13:35:10.225,-0.013432222,-0.017095556,0.007326667
65,2023-05-01 13:35:10.276,-0.014653334,-0.014653334,0.007326667
66,2023-05-01 13:35:10.312,-0.0061055557,-0.02075889,0.008547778
67,2023-05-01 13:35:10.358,-0.009768889,-0.03052778,0.0024422223
68,2023-05-01 13:35:10.359,-0.023201112,-0.039075557,0.0012211112
69,2023-05-01 13:35:10.361,-0.036633335,-0.039075557,-0.0012211112
70,2023-05-01 13:35:10.362,-0.028085556,-0.035412222,-0.0048844446
71,2023-05-01 13:35:10.448,-0.026864445,-0.037854444,-0.012211111
72,2023-05-01 13:35:10.452,-0.05617111,-0.034191113,-0.042738892
73,2023-05-01 13:35:10.452,-0.14164889,-0.04396,-0.07570889
74,2023-05-01 13:35:10.458,-0.32359445,-0.06716111,-0.12943779
75,2023-05-01 13:35:10.458,-0.52752,-0.13676445,-0.21003112
76,2023-05-01 13:35:10.492,-0.69603336,-0.18927222,-0.34191114
77,2023-05-01 13:35:10.540,-0.74976224,-0.2283478,-0.5018767
78,2023-05-01 13:35:10.541,-0.5800278,-0.2283478,-0.6105556
79,2023-05-01 13:35:10.541,-0.36755446,-0.22590557,-0.6679478
80,2023-05-01 13:35:10.543,-0.3382478,-0.3382478,-0.71435004
81,2023-05-01 13:35:10.590,-0.47867557,-0.5836911,-0.7680789
82,2023-05-01 13:35:10.591,-0.7754056,-0.75098336,-0.86576784
83,2023-05-01 13:35:10.628,-1.1808145,-0.81570226,-1.0037534
84,2023-05-01 13:35:10.629,-1.5642434,-0.7656367,-1.1832567
85,2023-05-01 13:35:10.629,-1.6582689,-0.6447467,-1.3114734
86,2023-05-01 13:35:10.677,-1.3017045,-0.5262989,-1.3835189
87,2023-05-01 13:35:10.680,-0.8327978,-0.38831335,-1.4116045
88,2023-05-01 13:35:10.717,-0.57514334,-0.22590557,-1.460449
89,2023-05-01 13:35:10.720,-0.026864445,-0.14897557,-1.3175789
90,2023-05-01 13:35:10.764,0.25277,-0.11356334,-1.3188001
91,2023-05-01 13:35:10.764,0.5153089,-0.09768889,-1.1124322
92,2023-05-01 13:35:10.768,0.45425335,0.039075557,-1.0635878
93,2023-05-01 13:35:10.852,0.70336,0.05250778,-0.8095967
94,2023-05-01 13:35:10.855,0.5690378,0.0048844446,-0.8987378
95,2023-05-01 13:35:10.861,0.38953447,-0.14287001,-1.0562612
96,2023-05-01 13:35:10.862,0.048844445,-0.25277,-1.174709
97,2023-05-01 13:35:10.898,-0.3284789,-0.36999667,-1.2650712
98,2023-05-01 13:35:10.899,-0.54339445,-0.4481478,-1.3065889
99,2023-05-01 13:35:10.943,-0.44326335,-0.46280113,-1.2870512
100,2023-05-01 13:35:10.944,-0.44692668,-0.3834289,-1.2162267
101,2023-05-01 13:35:10.946,-0.61788225,-0.22590557,-1.1087689
102,2023-05-01 13:35:10.990,-0.7009178,-0.08059334,-1.01108
103,2023-05-01 13:35:10.990,-0.7863956,0.05250778,-0.92316
104,2023-05-01 13:35:10.991,-0.9414767,0.106236674,-0.88042116
105,2023-05-01 13:35:11.034,-1.5129567,-0.19049335,-0.74976224
106,2023-05-01 13:35:11.034,-1.7168823,-0.50798225,-0.66306335
107,2023-05-01 13:35:11.078,-1.6594901,-0.65085226,-0.8767578
108,2023-05-01 13:35:11.079,-1.5837811,-0.5653745,-1.2272167
109,2023-05-01 13:35:11.123,-0.5226356,-0.40052447,-1.4348056
110,2023-05-01 13:35:11.124,0.7387723,-0.32115224,-1.6338468
111,2023-05-01 13:35:11.173,1.1160955,-0.26498112,-1.7303145
112,2023-05-01 13:35:11.173,1.0782411,-0.22590557,-1.7156612
113,2023-05-01 13:35:11.174,1.1222012,-0.10745778,-1.6460578
114,2023-05-01 13:35:11.213,1.1283067,0.0012211112,-1.5679067
115,2023-05-01 13:35:11.215,0.78395337,0.07570889,-1.526389
116,2023-05-01 13:35:11.258,0.3370267,0.13920668,-1.4775445
117,2023-05-01 13:35:11.260,0.4371578,0.23079,-1.3700867
118,2023-05-01 13:35:11.302,0.82791334,0.17584,-1.1905833
119,2023-05-01 13:35:11.304,0.5775856,-0.10745778,-1.0184067
120,2023-05-01 13:35:11.364,-0.1746189,-0.35168,-0.9182756
121,2023-05-01 13:35:11.365,-0.96223557,-0.5556056,-0.86821
122,2023-05-01 13:35:11.368,-1.4213734,-0.65085226,-0.74976224
123,2023-05-01 13:35:11.393,-1.2589656,-0.6520734,-0.3382478
124,2023-05-01 13:35:11.396,-1.0599245,-0.59590226,0.20636779
125,2023-05-01 13:35:11.439,-0.25399113,-0.3162678,1.0367234
126,2023-05-01 13:35:11.440,-1.6680379,0.058613338,0.8669889
127,2023-05-01 13:35:11.441,-3.272578,0.29062447,0.39075556
128,2023-05-01 13:35:11.490,-1.9830846,0.29673,0.6056711
129,2023-05-01 13:35:11.491,-0.36755446,0.14897557,0.50676113
130,2023-05-01 13:35:11.527,0.39075556,0.19904111,0.42983112
131,2023-05-01 13:35:11.528,0.6105556,0.5922389,0.23689556
132,2023-05-01 13:35:11.574,0.91094893,1.0232911,0.23933779
133,2023-05-01 13:35:11.574,1.1014422,1.3065889,0.34801668
134,2023-05-01 13:35:11.576,1.0709145,1.4775445,0.44448447
135,2023-05-01 13:35:11.620,1.1515079,1.6350678,0.5336256
136,2023-05-01 13:35:11.620,1.18692,1.7535156,0.67283225
137,2023-05-01 13:35:11.708,1.2186689,1.3200212,0.66428447
138,2023-05-01 13:35:11.710,1.5092934,0.31871,0.3504589
139,2023-05-01 13:35:13.871,0.6667267,0.8303556,-0.99886894
140,2023-05-01 13:35:14.244,0.4921078,0.8547778,-1.1368545
141,2023-05-01 13:35:14.244,0.28085557,0.76930004,-1.28583
142,2023-05-01 13:35:14.245,-0.026864445,0.59956557,-1.4335845
143,2023-05-01 13:35:14.245,-0.40052447,0.43349445,-1.6204145
144,2023-05-01 13:35:14.245,-0.6325356,0.3504589,-1.7400835
145,2023-05-01 13:35:14.245,-0.77906895,0.2845189,-1.6106457
146,2023-05-01 13:35:14.246,-1.1991311,0.29917222,-1.2284378
147,2023-05-01 13:35:14.246,-1.7852645,0.58247,-0.5482789
148,2023-05-01 13:35:14.246,-1.7303145,0.8218078,0.17339778
149,2023-05-01 13:35:14.246,-0.65085226,0.54461557,0.51653004
150,2023-05-01 13:35:14.246,0.31138334,0.17339778,0.30649891
151,2023-05-01 13:35:14.247,0.34679556,-0.0048844446,0.07570889
152,2023-05-01 13:35:14.247,-0.008547778,-0.16729222,0.014653334
153,2023-05-01 13:35:14.247,-0.44570556,-0.51653004,-0.06716111
154,2023-05-01 13:35:14.247,-0.7131289,-0.77418447,-0.19904111
155,2023-05-01 13:35:14.247,-0.31504667,-0.8767578,-0.2515489
156,2023-05-01 13:35:14.247,0.46158,-0.8450089,-0.36633334
157,2023-05-01 13:35:14.248,0.7815111,-0.69237006,-0.5140878
158,2023-05-01 13:35:14.248,0.73633003,-0.51164556,-0.47501224
159,2023-05-01 13:35:14.273,0.75953114,-0.25887558,-0.21125223
160,2023-05-01 13:35:14.274,0.7326667,0.11478445,0.3174889
161,2023-05-01 13:35:14.318,-0.9549089,0.44570556,0.29062447
162,2023-05-01 13:35:14.319,-2.383609,0.15874445,-0.18072446
163,2023-05-01 13:35:14.362,-0.7448778,-0.28940335,-0.38220778
164,2023-05-01 13:35:14.411,1.6204145,-0.49455002,-0.36877558
165,2023-05-01 13:35:14.411,2.1577034,-0.3394689,-0.26498112
166,2023-05-01 13:35:14.411,1.5984346,-0.068382226,-0.089141116
167,2023-05-01 13:35:14.453,1.4775445,0.2955089,0.34191114
168,2023-05-01 13:35:14.455,1.6851335,0.5910178,0.8498934
169,2023-05-01 13:35:14.455,1.7718323,0.80104893,1.3969512
170,2023-05-01 13:35:14.456,1.2455333,0.9976478,1.7816012
171,2023-05-01 13:35:14.498,0.78273225,1.07702,2.1345024
172,2023-05-01 13:35:14.499,1.0123012,0.90240115,2.328659
173,2023-05-01 13:35:14.543,1.9806423,0.7986067,2.3909357
174,2023-05-01 13:35:14.588,2.592419,0.8181445,2.3152268
175,2023-05-01 13:35:14.590,-0.27963445,1.17593,2.086879
176,2023-05-01 13:35:14.594,-4.841706,0.94758224,1.4372479
177,2023-05-01 13:35:14.595,-2.7548268,-0.07570889,1.6020979
178,2023-05-01 13:35:14.635,1.0721356,-0.36633334,1.6045401
179,2023-05-01 13:35:14.635,2.7597113,0.34557447,1.3749712
180,2023-05-01 13:35:14.680,3.7378213,1.1710457,1.5080723
181,2023-05-01 13:35:14.681,2.3408701,1.7425256,1.5276101
182,2023-05-01 13:35:14.723,0.16240779,1.7229879,1.2589656
183,2023-05-01 13:35:14.723,-0.3382478,1.2992623,1.1258645
184,2023-05-01 13:35:14.767,0.04029667,1.1417389,1.0025322
185,2023-05-01 13:35:14.812,0.36999667,1.2931567,0.88408446
186,2023-05-01 13:35:14.813,0.2503278,1.3713078,0.66062117
187,2023-05-01 13:35:14.818,-0.15752333,1.2821667,0.30283555
188,2023-05-01 13:35:14.821,-0.60445005,1.2443123,0.045181114
189,2023-05-01 13:35:14.859,-0.80227005,1.3664234,-0.0036633336
190,2023-05-01 13:35:14.861,-0.76930004,1.5532534,0.11600556
191,2023-05-01 13:35:14.865,-0.6569578,1.7193245,0.3834289
192,2023-05-01 13:35:14.903,-0.75098336,1.8817323,0.65085226
193,2023-05-01 13:35:14.904,-0.98055226,1.9501145,0.80593336
194,2023-05-01 13:35:14.949,-1.12098,1.9269134,0.81448114
195,2023-05-01 13:35:14.952,-1.3310112,1.779159,0.7558678
196,2023-05-01 13:35:14.995,-1.9464512,1.6130879,0.41395667
197,2023-05-01 13:35:14.995,-1.6594901,1.3590968,0.4273889
198,2023-05-01 13:35:14.997,-0.66306335,1.2333223,0.37366003
199,2023-05-01 13:35:15.039,1.0440501,1.1490656,0.3712178
200,2023-05-01 13:35:15.039,2.0209389,0.8218078,0.17828223
201,2023-05-01 13:35:15.084,3.2811258,0.62154555,0.36267
202,2023-05-01 13:35:15.084,4.657318,0.69481224,0.04029667
203,2023-05-01 13:35:15.129,5.525528,0.59834445,-0.18438779
204,2023-05-01 13:35:15.130,5.028536,0.3724389,-0.081814446
205,2023-05-01 13:35:15.172,3.3922467,0.41762,0.078151114
206,2023-05-01 13:35:15.174,1.4140468,0.31016225,0.27963445
207,2023-05-01 13:35:15.175,-0.41884112,0.039075557,0.41884112
208,2023-05-01 13:35:15.222,-2.3127844,-0.03297,0.44448447
209,2023-05-01 13:35:15.223,-3.9331992,-0.029306669,0.28574002
210,2023-05-01 13:35:15.262,-4.3996634,-0.19049335,0.15141778
211,2023-05-01 13:35:15.264,-3.3800356,-0.28940335,0.14897557
212,2023-05-01 13:35:15.359,-1.3529912,-0.42006224,0.26742333
213,2023-05-01 13:35:15.359,-0.14164889,-0.5372889,0.41395667
214,2023-05-01 13:35:15.360,-0.07937223,-0.40785113,0.48722336
215,2023-05-01 13:35:15.360,-0.14897557,-0.23445335,0.5971234
216,2023-05-01 13:35:15.442,-0.30283555,-0.046402223,0.75831
217,2023-05-01 13:35:15.445,-0.7424356,0.10501556,0.96589893
218,2023-05-01 13:35:15.445,-1.1881411,0.23933779,1.2150056
219,2023-05-01 13:35:15.447,-1.2687345,0.3602278,1.4384689
220,2023-05-01 13:35:15.490,-0.81936556,0.34069002,1.6106457
221,2023-05-01 13:35:15.490,-0.72778225,0.2942878,1.7022289
222,2023-05-01 13:35:15.490,-0.8669889,0.2942878,1.5117356
223,2023-05-01 13:35:15.577,-1.3456645,0.102573335,1.2394278
224,2023-05-01 13:35:15.579,-1.8915012,-0.07693,0.9268234
225,2023-05-01 13:35:15.584,-1.8182346,-0.24666445,0.66428447
226,2023-05-01 13:35:15.584,-1.4311423,-0.31260446,0.34191114
227,2023-05-01 13:35:15.623,-1.2467545,-0.23201112,-0.017095556
228,2023-05-01 13:35:15.624,-0.91217005,-0.07693,-0.35534334
229,2023-05-01 13:35:15.626,-0.3052778,0.11966889,-0.5372889
230,2023-05-01 13:35:15.626,0.26498112,0.41273558,-0.57270116
231,2023-05-01 13:35:15.669,0.46402225,0.67039,-0.59346
232,2023-05-01 13:35:15.669,0.6459678,0.8877478,-0.5568267
233,2023-05-01 13:35:15.712,0.7522045,1.0355023,-0.55316335
234,2023-05-01 13:35:15.713,0.92316,1.1392968,-0.57148004
235,2023-05-01 13:35:15.758,1.0489345,1.1637189,-0.63986224
236,2023-05-01 13:35:15.758,1.1795933,1.1502867,-0.79128003
237,2023-05-01 13:35:15.760,1.0990001,1.0525978,-1.0159645
238,2023-05-01 13:35:15.805,1.0525978,0.8962956,-1.3358957
239,2023-05-01 13:35:15.805,1.3615389,0.80471224,-1.5544745
240,2023-05-01 13:35:15.806,1.7413045,0.71801335,-1.6509423
241,2023-05-01 13:35:15.848,2.0661201,0.60445005,-1.6961234
242,2023-05-01 13:35:15.849,2.2431812,0.48966557,-1.7083346
243,2023-05-01 13:35:15.893,2.3884935,0.36633334,-1.67048
244,2023-05-01 13:35:15.896,2.3469756,0.23933779,-1.5373789
245,2023-05-01 13:35:15.937,2.1491556,0.068382226,-1.3041468
246,2023-05-01 13:35:15.938,1.9476722,-0.03052778,-1.0477134
247,2023-05-01 13:35:15.984,1.7767167,-0.089141116,-0.82791334
248,2023-05-01 13:35:15.986,1.6216357,-0.091583334,-0.5910178
249,2023-05-01 13:35:15.987,1.7486312,-0.051286668,-0.24178001
250,2023-05-01 13:35:16.028,1.4958612,-0.059834447,0.035412222
251,2023-05-01 13:35:16.029,1.0635878,-0.042738892,0.34313223
252,2023-05-01 13:35:16.075,0.6618422,-0.070824444,0.6056711
253,2023-05-01 13:35:16.076,0.5836911,0.064718895,0.7619734
254,2023-05-01 13:35:16.118,0.59590226,0.17339778,0.9597934
255,2023-05-01 13:35:16.119,0.35778558,0.24055889,1.1160955
256,2023-05-01 13:35:16.167,-0.06716111,0.3504589,1.2577446
257,2023-05-01 13:35:16.168,-0.45303226,0.39808223,1.4225945
258,2023-05-01 13:35:16.170,-0.94758224,0.37488112,1.5886656
259,2023-05-01 13:35:16.209,-1.7144401,0.3614489,1.669259
260,2023-05-01 13:35:16.212,-2.2785935,0.33580557,1.7119979
261,2023-05-01 13:35:16.252,-2.2700458,0.30894113,1.7754956
262,2023-05-01 13:35:16.300,-2.18701,0.36267,1.7266512
263,2023-05-01 13:35:16.301,-2.0343711,0.5030978,1.5886656
264,2023-05-01 13:35:16.302,-1.5092934,0.71435004,1.4140468
265,2023-05-01 13:35:16.346,-0.7021389,0.94514006,1.2614079
266,2023-05-01 13:35:16.388,0.36755446,1.2540811,0.9744467
267,2023-05-01 13:35:16.389,1.0232911,0.9500245,0.96956223
268,2023-05-01 13:35:16.391,0.66062117,0.7436567,0.6423045
269,2023-05-01 13:35:16.391,0.17828223,0.48600224,0.3284789
270,2023-05-01 13:35:16.481,0.06105556,0.31260446,-0.046402223
271,2023-05-01 13:35:16.482,0.15630223,0.2283478,-0.32725778
272,2023-05-01 13:35:16.485,0.42372558,0.22590557,-0.47257003
273,2023-05-01 13:35:16.486,0.5971234,0.33214223,-0.40052447
274,2023-05-01 13:35:16.527,0.3162678,0.45303226,-0.32237336
275,2023-05-01 13:35:16.529,0.38465002,0.48356003,-0.24055889
276,2023-05-01 13:35:16.533,0.83768225,0.40052447,-0.19537778
277,2023-05-01 13:35:16.620,0.58979666,0.28085557,-0.29673
278,2023-05-01 13:35:16.657,0.26376,0.17706113,-0.36389112
279,2023-05-01 13:35:16.703,-0.109900005,0.06594,-0.40296668
280,2023-05-01 13:35:16.704,-0.33336335,-0.015874445,-0.57270116
281,2023-05-01 13:35:16.706,-0.23445335,-0.064718895,-0.58613336
282,2023-05-01 13:35:16.708,-0.12943779,-0.028085556,-0.48111778
283,2023-05-01 13:35:16.747,0.05372889,0.03052778,-0.37976557
284,2023-05-01 13:35:16.750,0.25765446,0.081814446,-0.25765446
285,2023-05-01 13:35:16.753,0.4261678,0.14775445,-0.15141778
286,2023-05-01 13:35:16.754,0.51164556,0.20636779,-0.12211112
287,2023-05-01 13:35:16.792,0.71435004,0.19171445,-0.15386
288,2023-05-01 13:35:16.803,0.6435256,0.11356334,-0.25277
289,2023-05-01 13:35:16.807,0.3944189,0.05617111,-0.4273889
290,2023-05-01 13:35:16.807,0.20148334,-0.05372889,-0.57636446
291,2023-05-01 13:35:16.885,-0.15752333,-0.21369445,-0.79128003
292,2023-05-01 13:35:16.886,-0.25277,-0.37488112,-0.98055226
293,2023-05-01 13:35:16.887,-0.32237336,-0.5287411,-1.1344123
294,2023-05-01 13:35:16.887,-0.32725778,-0.6569578,-1.2736189
295,2023-05-01 13:35:16.930,-0.37366003,-0.79128003,-1.4812078
296,2023-05-01 13:35:16.930,-0.3724389,-0.90118,-1.6179723
297,2023-05-01 13:35:16.931,-0.5336256,-0.86576784,-1.4396901
298,2023-05-01 13:35:16.976,-0.80471224,-0.6801589,-1.1563922
299,2023-05-01 13:35:16.977,-0.41151446,-0.5580478,-0.9597934
300,2023-05-01 13:35:16.978,0.7204556,-0.61788225,-0.7815111
301,2023-05-01 13:35:17.022,1.471439,-0.70336,-0.73999333
302,2023-05-01 13:35:17.023,1.6619323,-0.7558678,-0.6801589
303,2023-05-01 13:35:17.065,1.7925912,-0.7937223,-0.42372558
304,2023-05-01 13:35:17.067,1.6069822,-0.79128003,-0.17950334
305,2023-05-01 13:35:17.067,1.1893623,-0.7656367,0.15141778
306,2023-05-01 13:35:17.111,0.81570226,-0.7228978,0.40052447
307,2023-05-01 13:35:17.125,0.7448778,-0.6337567,0.58124894
308,2023-05-01 13:35:17.153,1.3114734,-0.46402225,0.7546467
309,2023-05-01 13:35:17.154,1.471439,-0.20026223,0.83401895
310,2023-05-01 13:35:17.198,1.1588345,-0.028085556,0.9085067
311,2023-05-01 13:35:17.200,0.76930004,0.05006556,0.91094893
312,2023-05-01 13:35:17.201,0.56293225,0.20270446,1.05504
313,2023-05-01 13:35:17.243,0.18316667,0.31871,1.1893623
314,2023-05-01 13:35:17.245,-0.57148004,0.3492378,1.28583
315,2023-05-01 13:35:17.288,-1.4897556,0.3834289,1.3346745
316,2023-05-01 13:35:17.289,-2.0844367,0.40296668,1.40672
317,2023-05-01 13:35:17.337,-2.4129157,0.34557447,1.4641123
318,2023-05-01 13:35:17.338,-2.6156201,0.35412225,1.4103833
319,2023-05-01 13:35:17.378,-2.3127844,0.46646446,1.3273479
320,2023-05-01 13:35:17.378,-1.812129,0.62154555,1.13197
321,2023-05-01 13:35:17.380,-1.416489,0.78761667,0.81570226
322,2023-05-01 13:35:17.428,-0.7815111,1.0269545,0.4713489
323,2023-05-01 13:35:17.428,-0.16607112,1.2577446,0.14653334
324,2023-05-01 13:35:17.468,0.06227667,1.3822979,-0.37366003
325,2023-05-01 13:35:17.470,0.45425335,1.27484,-0.53484666
326,2023-05-01 13:35:17.517,0.5678167,1.2027946,-0.86821
327,2023-05-01 13:35:17.518,0.15141778,1.23088,-1.0232911
328,2023-05-01 13:35:17.519,-0.1306589,1.3358957,-0.8718734
329,2023-05-01 13:35:17.558,0.19049335,1.3639811,-0.45303226
330,2023-05-01 13:35:17.560,0.85722005,1.3236845,-0.28818223
331,2023-05-01 13:35:17.604,1.2894934,1.3249056,-0.5421733
332,2023-05-01 13:35:17.607,1.6729223,1.2785034,-0.90240115
333,2023-05-01 13:35:17.608,1.6655957,1.1356333,-1.2321012
334,2023-05-01 13:35:17.651,1.3163579,0.96589893,-1.4409112
335,2023-05-01 13:35:17.651,1.01108,0.8083756,-1.3639811
336,2023-05-01 13:35:17.697,0.86576784,0.60811335,-1.2223322
337,2023-05-01 13:35:17.699,0.8755367,0.45791668,-1.0403867
338,2023-05-01 13:35:17.740,0.7668578,0.31382558,-0.8816423
339,2023-05-01 13:35:17.790,0.58613336,0.15996556,-0.85966223
340,2023-05-01 13:35:17.791,0.56659555,0.024422223,-0.9402556
341,2023-05-01 13:35:17.792,0.78273225,-0.14531223,-1.0464922
342,2023-05-01 13:35:17.830,0.6520734,-0.29673,-1.2345434
343,2023-05-01 13:35:17.833,0.39686114,-0.44570556,-1.3114734
344,2023-05-01 13:35:17.833,0.07570889,-0.58979666,-1.3322322
345,2023-05-01 13:35:17.873,-0.2735289,-0.7106867,-1.3224634
346,2023-05-01 13:35:17.874,-0.35412225,-0.8327978,-1.1637189
347,2023-05-01 13:35:17.918,-0.03174889,-0.7448778,-0.7656367
348,2023-05-01 13:35:17.964,0.058613338,-0.5653745,-0.4383789
349,2023-05-01 13:35:17.966,-0.008547778,-0.44326335,-0.19782001
350,2023-05-01 13:35:17.967,0.06105556,-0.41395667,0.16240779
