,w_gyroscope_time,w_gyroscope_x,w_gyroscope_y,w_gyroscope_z
0,w_gyroscope_time,w_gyroscope_x,w_gyroscope_y,w_gyroscope_z
1,2023-05-12 12:41:05.349000,0.070824444,-0.046402223,0.026864445
2,2023-05-12 12:41:05.349000,0.117226675,-0.051286668,0.029306669
3,2023-05-12 12:41:05.349000,0.12455334,-0.059834447,0.036633335
4,2023-05-12 12:41:05.349000,0.10867889,-0.06716111,0.035412222
5,2023-05-12 12:41:05.350000,0.10135223,-0.068382226,0.04151778
6,2023-05-12 12:41:05.350000,0.091583334,-0.085477784,0.04151778
7,2023-05-12 12:41:05.350000,0.09280445,-0.09768889,0.04029667
8,2023-05-12 12:41:05.350000,0.16240779,-0.08425667,0.036633335
9,2023-05-12 12:41:05.350000,0.18805112,-0.06960334,0.05372889
10,2023-05-12 12:41:05.350000,0.14653334,-0.05372889,0.06105556
11,2023-05-12 12:41:05.351000,0.11478445,-0.058613338,0.06960334
12,2023-05-12 12:41:05.351000,0.106236674,-0.07326667,0.07570889
13,2023-05-12 12:41:05.351000,0.09768889,-0.059834447,0.07570889
14,2023-05-12 12:41:05.359000,0.11112112,-0.036633335,0.06716111
15,2023-05-12 12:41:05.359000,0.15996556,-0.04151778,0.058613338
16,2023-05-12 12:41:05.398000,0.23811668,-0.06594,0.042738892
17,2023-05-12 12:41:05.400000,0.34191114,-0.07448778,0.024422223
18,2023-05-12 12:41:05.443000,0.4151778,-0.07570889,0.03052778
19,2023-05-12 12:41:05.443000,0.45791668,-0.089141116,0.023201112
20,2023-05-12 12:41:05.444000,0.45547447,-0.10867889,0.025643334
21,2023-05-12 12:41:05.480000,0.42983112,-0.12943779,0.046402223
22,2023-05-12 12:41:05.481000,0.38709223,-0.13554333,0.054950003
23,2023-05-12 12:41:05.521000,0.37976557,-0.11234222,0.047623336
24,2023-05-12 12:41:05.524000,0.40052447,-0.11112112,0.058613338
25,2023-05-12 12:41:05.563000,0.41273558,-0.13676445,0.09402556
26,2023-05-12 12:41:05.564000,0.4163989,-0.15019667,0.08425667
27,2023-05-12 12:41:05.609000,0.5470578,-0.2283478,0.017095556
28,2023-05-12 12:41:05.609000,0.91217005,-0.45791668,0
29,2023-05-12 12:41:05.645000,1.2443123,-0.6752745,0.07570889
30,2023-05-12 12:41:05.646000,1.394509,-0.72778225,0.11844778
31,2023-05-12 12:41:05.686000,1.35177,-0.59468114,0.10379445
32,2023-05-12 12:41:05.686000,1.1160955,-0.4481478,0.109900005
33,2023-05-12 12:41:05.729000,0.92071784,-0.47379112,0.1746189
34,2023-05-12 12:41:05.729000,0.7900589,-0.5324045,0.32970002
35,2023-05-12 12:41:05.772000,0.6227667,-0.4823389,0.44204223
36,2023-05-12 12:41:05.772000,0.3260367,-0.32725778,0.47501224
37,2023-05-12 12:41:05.810000,0.12699556,-0.3504589,0.5030978
38,2023-05-12 12:41:05.852000,0.15630223,-0.35900667,0.61544
39,2023-05-12 12:41:05.854000,-0.04029667,-0.30039334,0.6752745
40,2023-05-12 12:41:05.867000,-0.41762,-0.19537778,0.69114894
41,2023-05-12 12:41:05.868000,-0.91461223,-0.102573335,0.66428447
42,2023-05-12 12:41:05.893000,-1.295599,-0.06594,0.63131446
43,2023-05-12 12:41:05.897000,-1.4079412,-0.16118668,0.63742
44,2023-05-12 12:41:05.936000,-1.3603178,-0.36755446,0.67161113
45,2023-05-12 12:41:05.982000,-1.2186689,-0.58491224,0.6984756
46,2023-05-12 12:41:05.982000,-1.0318389,-0.69481224,0.72411895
47,2023-05-12 12:41:05.983000,-0.8327978,-0.6691689,0.72411895
48,2023-05-12 12:41:06.017000,-0.63742,-0.5470578,0.7070234
49,2023-05-12 12:41:06.020000,-0.4689067,-0.40907225,0.6996967
50,2023-05-12 12:41:06.057000,-0.4798967,-0.29673,0.70580226
51,2023-05-12 12:41:06.059000,-0.6972545,-0.16607112,0.6838223
52,2023-05-12 12:41:06.099000,-0.9549089,0.008547778,0.6056711
53,2023-05-12 12:41:06.103000,-1.1551712,0.12455334,0.46768558
54,2023-05-12 12:41:06.141000,-1.18692,0.2759711,0.26376
55,2023-05-12 12:41:06.142000,-0.91583335,0.45059,0.029306669
56,2023-05-12 12:41:06.185000,-0.44204223,0.49577114,-0.064718895
57,2023-05-12 12:41:06.186000,0.04029667,0.35656446,-0.07326667
58,2023-05-12 12:41:06.222000,0.44082114,0.18316667,-0.08792
59,2023-05-12 12:41:06.232000,0.7900589,0.11112112,-0.13432223
60,2023-05-12 12:41:06.265000,1.1454023,0.064718895,-0.25399113
61,2023-05-12 12:41:06.265000,1.625299,0.03297,-0.3858711
62,2023-05-12 12:41:06.306000,2.07711,0.039075557,-0.41762
63,2023-05-12 12:41:06.306000,2.15404,-0.008547778,-0.3931978
64,2023-05-12 12:41:06.306000,1.6863545,-0.106236674,-0.32115224
65,2023-05-12 12:41:06.348000,0.8987378,-0.2295689,-0.1856089
66,2023-05-12 12:41:06.389000,0.1526389,-0.32970002,-0.11844778
67,2023-05-12 12:41:06.390000,-0.11844778,-0.40052447,-0.17828223
68,2023-05-12 12:41:06.391000,-0.07693,-0.5092034,-0.23567446
69,2023-05-12 12:41:06.430000,-0.008547778,-0.58613336,-0.26864445
70,2023-05-12 12:41:06.431000,-0.07326667,-0.6105556,-0.3174889
71,2023-05-12 12:41:06.470000,-0.20636779,-0.5800278,-0.44326335
72,2023-05-12 12:41:06.512000,-0.17706113,-0.57636446,-0.5482789
73,2023-05-12 12:41:06.512000,-0.10867889,-0.5287411,-0.64963114
74,2023-05-12 12:41:06.513000,-0.08059334,-0.5482789,-0.76075226
75,2023-05-12 12:41:06.594000,-0.047623336,-0.57148004,-0.8303556
76,2023-05-12 12:41:06.594000,-0.0048844446,-0.64108336,-0.8730945
77,2023-05-12 12:41:06.595000,-0.05006556,-0.7228978,-0.86943114
78,2023-05-12 12:41:06.603000,-0.15508112,-0.77906895,-0.7888378
79,2023-05-12 12:41:06.635000,-0.21613668,-0.73633003,-0.7131289
80,2023-05-12 12:41:06.636000,-0.18683001,-0.5641534,-0.68626446
81,2023-05-12 12:41:06.676000,-0.11112112,-0.42250445,-0.68626446
82,2023-05-12 12:41:06.678000,0.024422223,-0.40907225,-0.5482789
83,2023-05-12 12:41:06.721000,0.12699556,-0.52019334,-0.3492378
84,2023-05-12 12:41:06.722000,0.14897557,-0.6325356,-0.16362889
85,2023-05-12 12:41:06.758000,0.059834447,-0.6557367,0.11844778
86,2023-05-12 12:41:06.761000,-0.23323223,-0.47623336,0.30649891
87,2023-05-12 12:41:06.800000,-0.6239878,-0.14531223,0.29306668
88,2023-05-12 12:41:06.800000,-0.8120389,-0.039075557,0.29795113
89,2023-05-12 12:41:06.804000,-0.63619894,-0.17217667,0.42983112
90,2023-05-12 12:41:06.841000,-0.18194556,-0.2295689,0.5922389
91,2023-05-12 12:41:06.883000,0.09402556,-0.1856089,0.73755115
92,2023-05-12 12:41:06.886000,-0.13432223,-0.06349778,0.8120389
93,2023-05-12 12:41:06.924000,-0.6740534,0.06594,0.8645467
94,2023-05-12 12:41:06.924000,-1.1222012,0.15019667,0.8767578
95,2023-05-12 12:41:06.926000,-1.3004833,0.23201112,0.87065226
96,2023-05-12 12:41:06.967000,-1.6607112,0.14409111,0.72534
97,2023-05-12 12:41:06.967000,-1.8316667,0.09036223,0.66428447
98,2023-05-12 12:41:07.006000,-1.4677756,0.24055889,0.79616445
99,2023-05-12 12:41:07.007000,-0.7351089,0.27230778,0.83768225
100,2023-05-12 12:41:07.049000,-0.1526389,0.30894113,0.8327978
101,2023-05-12 12:41:07.051000,-0.06349778,0.39564002,0.8584412
102,2023-05-12 12:41:07.090000,-0.3614489,0.4701278,0.8230289
103,2023-05-12 12:41:07.090000,-0.5482789,0.4933289,0.70580226
104,2023-05-12 12:41:07.130000,-0.37488112,0.42372558,0.61666113
105,2023-05-12 12:41:07.135000,-0.14531223,0.4481478,0.54461557
106,2023-05-12 12:41:07.172000,-0.1306589,0.39197668,0.45303226
107,2023-05-12 12:41:07.173000,-0.25643334,0.31138334,0.37366003
108,2023-05-12 12:41:07.216000,-0.30283555,0.070824444,0.31260446
109,2023-05-12 12:41:07.217000,-0.03174889,-0.19049335,0.25521225
110,2023-05-12 12:41:07.253000,0.6288723,-0.31993112,0.2283478
111,2023-05-12 12:41:07.254000,1.4836501,-0.3382478,0.2295689
112,2023-05-12 12:41:07.294000,2.3408701,-0.29062447,0.16240779
113,2023-05-12 12:41:07.338000,2.9257824,-0.05372889,-0.0061055557
114,2023-05-12 12:41:07.339000,2.9599733,0.35168,-0.2075889
115,2023-05-12 12:41:07.339000,2.3384278,0.56659555,-0.4041878
116,2023-05-12 12:41:07.377000,1.2333223,0.33580557,-0.5788067
117,2023-05-12 12:41:07.378000,0.16729222,0.045181114,-0.58491224
118,2023-05-12 12:41:07.380000,-0.46646446,-0.12211112,-0.6386411
119,2023-05-12 12:41:07.419000,-0.47379112,-0.22102112,-0.7167922
120,2023-05-12 12:41:07.462000,-0.21735778,-0.14042778,-0.79250115
121,2023-05-12 12:41:07.463000,0.089141116,-0.012211111,-0.9829945
122,2023-05-12 12:41:07.464000,0.25643334,0.07204556,-1.1551712
123,2023-05-12 12:41:07.503000,0.2735289,0.10745778,-1.1905833
124,2023-05-12 12:41:07.503000,0.26009667,0.07693,-1.1942468
125,2023-05-12 12:41:07.543000,0.24788557,-0.028085556,-1.1454023
126,2023-05-12 12:41:07.584000,0.13432223,-0.17706113,-1.0013112
127,2023-05-12 12:41:07.585000,-0.102573335,-0.40052447,-0.8730945
128,2023-05-12 12:41:07.586000,-0.24666445,-0.68626446,-0.8486723
129,2023-05-12 12:41:07.626000,-0.12577444,-0.88042116,-0.81326
130,2023-05-12 12:41:07.626000,0.025643334,-1.064809,-0.71557117
131,2023-05-12 12:41:07.668000,0.01099,-1.2150056,-0.5739222
132,2023-05-12 12:41:07.669000,-0.085477784,-1.0464922,-0.44204223
133,2023-05-12 12:41:07.707000,-0.25765446,-0.5128667,-0.40296668
134,2023-05-12 12:41:07.708000,-0.47623336,0.09402556,-0.39197668
135,2023-05-12 12:41:07.750000,-0.5324045,0.28940335,-0.30894113
136,2023-05-12 12:41:07.750000,-0.3309211,-0.013432222,-0.16485001
137,2023-05-12 12:41:07.789000,-0.0024422223,-0.27108666,0.0024422223
138,2023-05-12 12:41:07.791000,0.28818223,-0.33580557,0.26986557
139,2023-05-12 12:41:07.838000,0.17828223,-0.5262989,0.5922389
140,2023-05-12 12:41:07.839000,-0.20636779,-0.7204556,0.78273225
141,2023-05-12 12:41:07.873000,-0.5421733,-0.7131289,0.9549089
142,2023-05-12 12:41:07.874000,-0.75953114,-0.6032289,1.1063267
143,2023-05-12 12:41:07.877000,-0.8437878,-0.39686114,1.2467545
144,2023-05-12 12:41:07.955000,-0.8083756,-0.19415668,1.4018356
145,2023-05-12 12:41:07.955000,-0.7204556,0,1.5959923
146,2023-05-12 12:41:07.956000,-0.52019334,0.1306589,1.6717012
147,2023-05-12 12:41:07.998000,-0.20636779,0.25277,1.6533846
148,2023-05-12 12:41:08.001000,0.064718895,0.47501224,1.5862234
149,2023-05-12 12:41:08.003000,0.08669889,0.74976224,1.50563
150,2023-05-12 12:41:08.080000,-0.12577444,0.92560226,1.4152678
151,2023-05-12 12:41:08.081000,-0.34557447,0.94391894,1.2797245
152,2023-05-12 12:41:08.082000,-0.36999667,0.93537116,1.0562612
153,2023-05-12 12:41:08.086000,-0.21369445,0.9964267,0.7949434
154,2023-05-12 12:41:08.119000,-0.15996556,1.0782411,0.5324045
155,2023-05-12 12:41:08.121000,-0.21369445,0.96712005,0.27719223
156,2023-05-12 12:41:08.164000,-0.08059334,0.6423045,0.045181114
157,2023-05-12 12:41:08.165000,0.45181113,0.16973445,0.0024422223
158,2023-05-12 12:41:08.202000,0.9524667,-0.16729222,-0.009768889
159,2023-05-12 12:41:08.203000,0.97688895,-0.5153089,-0.03052778
160,2023-05-12 12:41:08.246000,0.91583335,-0.61544,-0.2295689
161,2023-05-12 12:41:08.247000,1.1160955,-0.34069002,-0.43105224
162,2023-05-12 12:41:08.285000,1.3078101,-0.028085556,-0.63986224
163,2023-05-12 12:41:08.286000,1.1710457,0.15386,-0.96712005
164,2023-05-12 12:41:08.327000,0.9365923,0.26986557,-1.3175789
165,2023-05-12 12:41:08.332000,0.8425667,0.36633334,-1.50563
166,2023-05-12 12:41:08.369000,0.7656367,0.26986557,-1.5239468
167,2023-05-12 12:41:08.372000,0.49821335,0.10135223,-1.51662
168,2023-05-12 12:41:08.411000,0.26742333,-0.07326667,-1.5434844
169,2023-05-12 12:41:08.412000,0.23323223,-0.2185789,-1.6118667
170,2023-05-12 12:41:08.413000,0.53973114,-0.20636779,-1.5947711
171,2023-05-12 12:41:08.451000,0.99032116,-0.0061055557,-1.4311423
172,2023-05-12 12:41:08.452000,1.1234223,0.16485001,-1.3334534
173,2023-05-12 12:41:08.492000,1.1063267,0.20514667,-1.4103833
174,2023-05-12 12:41:08.535000,0.96589893,0.109900005,-1.3456645
175,2023-05-12 12:41:08.536000,0.6899278,0.12455334,-1.1576134
176,2023-05-12 12:41:08.537000,0.2075889,0.04396,-0.94391894
177,2023-05-12 12:41:08.574000,-0.4041878,-0.09402556,-0.5580478
178,2023-05-12 12:41:08.574000,-0.9414767,-0.21369445,0.012211111
179,2023-05-12 12:41:08.615000,-1.72543,-0.18194556,0.83524
180,2023-05-12 12:41:08.618000,-3.053999,-0.048844445,1.4409112
181,2023-05-12 12:41:08.659000,-4.349598,-0.08425667,1.6607112
182,2023-05-12 12:41:08.663000,-4.6109157,-0.41395667,1.9843056
183,2023-05-12 12:41:08.698000,-3.4093423,-0.8767578,2.6656857
184,2023-05-12 12:41:08.699000,-1.6655957,-1.2382067,3.58274
185,2023-05-12 12:41:08.738000,-0.9133912,-1.5251678,4.5193324
186,2023-05-12 12:41:08.740000,-1.8267823,-1.8939434,5.292296
187,2023-05-12 12:41:08.785000,-3.679208,-2.2553923,5.635428
188,2023-05-12 12:41:08.828000,-5.0786014,-1.6643745,5.535297
189,2023-05-12 12:41:08.832000,-5.4095225,-0.5971234,4.852696
190,2023-05-12 12:41:08.833000,-5.745328,-0.51775116,4.1762004
191,2023-05-12 12:41:08.863000,-7.3205614,-2.00018,3.702409
192,2023-05-12 12:41:08.865000,-9.618692,-2.1955578,3.4362068
193,2023-05-12 12:41:08.865000,-7.434125,-0.8535567,2.5252578
194,2023-05-12 12:41:08.904000,-0.73999333,0.18194556,1.8634156
195,2023-05-12 12:41:08.948000,2.75849,0.5287411,1.5447056
196,2023-05-12 12:41:08.959000,1.2601867,0.7900589,0.76075226
197,2023-05-12 12:41:08.960000,-0.84745115,0.7851745,0.50554
198,2023-05-12 12:41:08.987000,-1.5752333,0.8645467,0.26986557
199,2023-05-12 12:41:08.987000,-0.51775116,0.96223557,-0.05372889
200,2023-05-12 12:41:09.029000,1.3163579,0.7778478,0.14287001
201,2023-05-12 12:41:09.030000,1.61553,0.21613668,1.2235534
202,2023-05-12 12:41:09.069000,0.12577444,-0.68138003,0.26620224
203,2023-05-12 12:41:09.070000,0.30039334,-1.3664234,0.059834447
204,2023-05-12 12:41:09.119000,0.69237006,-1.2040156,0.24300112
205,2023-05-12 12:41:09.119000,0.2942878,-1.1612767,0.25765446
206,2023-05-12 12:41:09.151000,0.05250778,-1.3798556,0.36389112
207,2023-05-12 12:41:09.153000,0.3712178,-1.6887968,0.45181113
208,2023-05-12 12:41:09.192000,0.64963114,-1.8255612,0.42861003
209,2023-05-12 12:41:09.194000,0.6325356,-1.6448368,0.5128667
210,2023-05-12 12:41:09.236000,0.46402225,-1.4250367,0.63009334
211,2023-05-12 12:41:09.236000,0.30405667,-1.339559,0.5372889
212,2023-05-12 12:41:09.274000,0.45425335,-1.4018356,0.5507211
213,2023-05-12 12:41:09.282000,0.7082445,-1.34078,0.6618422
214,2023-05-12 12:41:09.320000,0.88408446,-0.39564002,0.6569578
215,2023-05-12 12:41:09.321000,0.5043189,-0.31871,0.70458114
216,2023-05-12 12:41:09.361000,0.0024422223,-0.07448778,0.46402225
217,2023-05-12 12:41:09.361000,0.35656446,0,0.23323223
218,2023-05-12 12:41:09.362000,1.3078101,-0.41151446,0.5189722
219,2023-05-12 12:41:09.403000,1.2137845,-0.39564002,0.32970002
220,2023-05-12 12:41:09.404000,0.7485411,-0.10135223,0.29795113
221,2023-05-12 12:41:09.446000,0.49821335,0.15874445,0.28085557
222,2023-05-12 12:41:09.486000,0.3602278,0.25765446,0.20270446
223,2023-05-12 12:41:09.487000,0.40785113,0.27841336,0.109900005
224,2023-05-12 12:41:09.489000,0.38465002,0.24055889,0.070824444
225,2023-05-12 12:41:09.565000,0.05006556,0.3162678,-0.0036633336
226,2023-05-12 12:41:09.566000,-0.21003112,0.42861003,-0.09768889
227,2023-05-12 12:41:09.568000,-0.3382478,0.45303226,-0.19415668
228,2023-05-12 12:41:09.571000,-0.37732336,0.53973114,-0.27963445
229,2023-05-12 12:41:09.604000,-0.34679556,0.55438447,-0.34191114
230,2023-05-12 12:41:09.607000,-0.21125223,0.56171113,-0.36755446
231,2023-05-12 12:41:09.647000,-0.13920668,0.57270116,-0.37366003
232,2023-05-12 12:41:09.649000,-0.19782001,0.54950005,-0.35656446
233,2023-05-12 12:41:09.692000,-0.1856089,0.51775116,-0.34435335
234,2023-05-12 12:41:09.694000,-0.15874445,0.56659555,-0.3834289
235,2023-05-12 12:41:09.729000,-0.26620224,0.71801335,-0.40296668
236,2023-05-12 12:41:09.731000,-0.51164556,0.93537116,-0.26620224
237,2023-05-12 12:41:09.773000,-0.7998278,1.2259957,-0.2759711
238,2023-05-12 12:41:09.773000,-0.9817734,1.4335845,-0.3858711
239,2023-05-12 12:41:09.811000,-0.97566783,1.3749712,-0.50798225
240,2023-05-12 12:41:09.812000,-0.4908867,1.1734878,-0.37610224
241,2023-05-12 12:41:09.852000,0.08303556,1.1051056,-0.26498112
242,2023-05-12 12:41:09.854000,0.12577444,0.9817734,-0.24422224
243,2023-05-12 12:41:09.894000,-0.10867889,0.49943447,-0.2503278
244,2023-05-12 12:41:09.896000,-0.13676445,-0.024422223,-0.16240779
245,2023-05-12 12:41:09.897000,-0.046402223,-0.38953447,-0.15386
246,2023-05-12 12:41:09.935000,-0.0061055557,-0.7778478,-0.18805112
247,2023-05-12 12:41:09.935000,0.08669889,-1.1331911,-0.16118668
248,2023-05-12 12:41:09.981000,0.31382558,-1.3481067,-0.10745778
249,2023-05-12 12:41:09.982000,0.6056711,-1.4873134,-0.16240779
250,2023-05-12 12:41:10.018000,0.7326667,-1.4433534,-0.15874445
251,2023-05-12 12:41:10.020000,0.61788225,-1.295599,-0.14164889
252,2023-05-12 12:41:10.058000,0.56293225,-1.1441811,-0.14531223
253,2023-05-12 12:41:10.060000,0.67283225,-1.0269545,-0.12943779
254,2023-05-12 12:41:10.099000,0.7131289,-0.9329289,-0.14287001
255,2023-05-12 12:41:10.101000,0.8437878,-0.6020078,-0.08669889
256,2023-05-12 12:41:10.142000,0.81081784,0.13920668,-0.19049335
257,2023-05-12 12:41:10.143000,0.58491224,0.37488112,0.023201112
258,2023-05-12 12:41:10.183000,-0.03052778,0.36267,0.034191113
259,2023-05-12 12:41:10.185000,-0.3382478,0.37366003,0.034191113
260,2023-05-12 12:41:10.225000,-0.11356334,0.28329778,0.12089001
261,2023-05-12 12:41:10.226000,0.16240779,-0.02075889,0.25887558
262,2023-05-12 12:41:10.265000,0.30161446,-0.51775116,0.39808223
263,2023-05-12 12:41:10.309000,0.60811335,-0.8498934,0.49577114
264,2023-05-12 12:41:10.310000,0.81936556,-0.081814446,0.56171113
265,2023-05-12 12:41:10.310000,0.7204556,0.10379445,0.40785113
266,2023-05-12 12:41:10.348000,0.23323223,-0.15386,0.2942878
267,2023-05-12 12:41:10.349000,-0.10013112,0.03174889,0.15019667
268,2023-05-12 12:41:10.388000,-0.07937223,0.30283555,0.036633335
269,2023-05-12 12:41:10.398000,-0.14164889,0.42983112,-0.037854444
270,2023-05-12 12:41:10.436000,-0.35290113,0.4591378,-0.039075557
271,2023-05-12 12:41:10.437000,-0.38831335,0.5043189,-0.02198
272,2023-05-12 12:41:10.439000,-0.15386,0.59346,-0.019537779
273,2023-05-12 12:41:10.472000,0.081814446,0.66062117,-0.045181114
274,2023-05-12 12:41:10.472000,0.09280445,0.6801589,-0.035412222
275,2023-05-12 12:41:10.515000,-0.051286668,0.6789378,-0.046402223
276,2023-05-12 12:41:10.516000,-0.18438779,0.6337567,-0.07326667
277,2023-05-12 12:41:10.557000,-0.32237336,0.57514334,-0.2075889
278,2023-05-12 12:41:10.558000,-0.26376,0.5470578,-0.27475002
279,2023-05-12 12:41:10.596000,-0.14653334,0.54095227,-0.31382558
280,2023-05-12 12:41:10.600000,-0.12455334,0.57270116,-0.32481557
281,2023-05-12 12:41:10.636000,-0.32481557,0.68626446,-0.36999667
282,2023-05-12 12:41:10.637000,-0.6288723,0.8523356,-0.59346
283,2023-05-12 12:41:10.678000,-0.5971234,1.1673822,-0.64963114
284,2023-05-12 12:41:10.680000,-0.5910178,1.4384689,-0.5775856
285,2023-05-12 12:41:10.719000,-0.72778225,1.5483689,-0.42250445
286,2023-05-12 12:41:10.722000,-0.8315767,1.5764545,-0.50798225
287,2023-05-12 12:41:10.763000,-0.6789378,1.5105145,-0.60445005
288,2023-05-12 12:41:10.770000,-0.35168,1.1734878,-0.4273889
289,2023-05-12 12:41:10.800000,-0.23323223,0.99032116,-0.39075556
290,2023-05-12 12:41:10.804000,-0.3284789,0.92316,-0.3309211
291,2023-05-12 12:41:10.844000,-0.42250445,0.64841,-0.26376
292,2023-05-12 12:41:10.844000,-0.29673,0.26376,-0.2075889
293,2023-05-12 12:41:10.848000,-0.11112112,-0.08425667,-0.19293556
294,2023-05-12 12:41:10.886000,0.23201112,-0.45547447,-0.14164889
295,2023-05-12 12:41:10.886000,0.6288723,-0.85966223,0.03297
296,2023-05-12 12:41:10.926000,0.7351089,-1.1954678,0.12455334
297,2023-05-12 12:41:10.970000,0.7351089,-1.4189311,0.14653334
298,2023-05-12 12:41:10.971000,0.61544,-1.4201523,0.2503278
299,2023-05-12 12:41:10.973000,0.3809867,-1.35177,0.35656446
300,2023-05-12 12:41:11.049000,0.32481557,-1.5227256,0.3370267
301,2023-05-12 12:41:11.050000,0.52019334,-1.7938123,0.37488112
