,w_gyroscope_time,w_gyroscope_x,w_gyroscope_y,w_gyroscope_z
0,w_gyroscope_time,w_gyroscope_x,w_gyroscope_y,w_gyroscope_z
1,2023-05-12 14:24:15.202000,-1.7986968,1.9317979,4.152999
2,2023-05-12 14:24:15.204000,-1.9037123,2.0758889,4.1994014
3,2023-05-12 14:24:15.204000,-1.7400835,1.9366823,4.174979
4,2023-05-12 14:24:15.206000,-1.6375101,1.8646368,4.1261344
5,2023-05-12 14:24:15.206000,-1.8621945,1.9269134,4.1175866
6,2023-05-12 14:24:15.228000,-2.1430502,1.954999,4.1517777
7,2023-05-12 14:24:15.235000,-2.4471068,1.96721,4.1383457
8,2023-05-12 14:24:15.236000,-2.8097768,1.8389934,3.9954758
9,2023-05-12 14:24:15.241000,-2.8427467,1.6521634,3.9380834
10,2023-05-12 14:24:15.274000,-2.5301423,1.6179723,3.9881492
11,2023-05-12 14:24:15.277000,-2.317669,1.6472789,3.9490736
12,2023-05-12 14:24:15.281000,-2.3079002,1.2540811,3.6059413
13,2023-05-12 14:24:15.283000,-2.1833467,0.9378134,3.1272657
14,2023-05-12 14:24:15.284000,-2.218759,0.7937223,2.7181935
15,2023-05-12 14:24:15.324000,-2.1503768,0.69237006,2.3359857
16,2023-05-12 14:24:15.338000,-1.4970822,0.41029334,1.9342401
17,2023-05-12 14:24:15.361000,-0.52141446,0.11966889,1.4665545
18,2023-05-12 14:24:15.366000,-0.048844445,-0.068382226,0.86943114
19,2023-05-12 14:24:15.412000,-0.081814446,-0.21735778,0.27841336
20,2023-05-12 14:24:15.412000,-0.057392225,-0.32970002,-0.24910668
21,2023-05-12 14:24:15.505000,0.23933779,-0.5018767,-0.7131289
22,2023-05-12 14:24:15.509000,0.35900667,-0.6117767,-1.1734878
23,2023-05-12 14:24:15.510000,0.31382558,-0.70946556,-1.5300523
24,2023-05-12 14:24:15.541000,0.45547447,-0.7070234,-1.6985656
25,2023-05-12 14:24:15.546000,0.81570226,-0.5788067,-1.8829534
26,2023-05-12 14:24:15.546000,1.1893623,-0.5458367,-2.1809046
27,2023-05-12 14:24:15.593000,1.2382067,-0.6581789,-2.4666445
28,2023-05-12 14:24:15.635000,0.91217005,-0.7570889,-2.633937
29,2023-05-12 14:24:15.635000,0.6667267,-0.70336,-2.7987869
30,2023-05-12 14:24:15.722000,0.9915423,-0.6032289,-2.9611945
31,2023-05-12 14:24:15.730000,1.5178412,-0.5678167,-3.1248236
32,2023-05-12 14:24:15.733000,1.4775445,-0.64841,-3.3617191
33,2023-05-12 14:24:15.770000,0.8535567,-0.82791334,-3.6096046
34,2023-05-12 14:24:15.814000,0.63131446,-0.76441556,-3.7048512
35,2023-05-12 14:24:15.815000,1.339559,-0.52752,-3.7158413
36,2023-05-12 14:24:15.857000,2.65958,-0.4273889,-3.7378213
37,2023-05-12 14:24:15.859000,3.5400012,-0.5262989,-3.8257413
38,2023-05-12 14:24:15.860000,3.1126122,-0.8755367,-3.779339
39,2023-05-12 14:24:43.903000,-0.3162678,0.20514667,-0.25765446
40,2023-05-12 14:24:44.339000,0.07570889,0.21003112,-0.20881
41,2023-05-12 14:24:44.339000,0.39075556,0.21613668,-0.14775445
42,2023-05-12 14:24:44.340000,0.5140878,0.21735778,-0.08059334
43,2023-05-12 14:24:44.340000,0.5153089,0.21735778,-0.0061055557
44,2023-05-12 14:24:44.340000,0.4493689,0.19904111,0.05006556
45,2023-05-12 14:24:44.340000,0.33214223,0.15630223,0.07204556
46,2023-05-12 14:24:44.340000,0.26742333,0.14042778,0.07326667
47,2023-05-12 14:24:44.340000,0.23567446,0.13188,0.048844445
48,2023-05-12 14:24:44.341000,0.11966889,0.08425667,-0.0048844446
49,2023-05-12 14:24:44.341000,-0.017095556,0.028085556,-0.051286668
50,2023-05-12 14:24:44.341000,-0.04396,0.0048844446,-0.070824444
51,2023-05-12 14:24:44.341000,0.051286668,0.007326667,-0.08669889
52,2023-05-12 14:24:44.342000,0.16240779,0.009768889,-0.09280445
53,2023-05-12 14:24:44.342000,0.10867889,-0.08425667,-0.08059334
54,2023-05-12 14:24:44.342000,-0.08059334,-0.10379445,-0.098910004
55,2023-05-12 14:24:44.342000,-0.20636779,-0.019537779,-0.12089001
56,2023-05-12 14:24:44.342000,-0.18683001,-0.007326667,-0.102573335
57,2023-05-12 14:24:44.342000,-0.16729222,0.03297,-0.106236674
58,2023-05-12 14:24:44.343000,-0.16485001,0.109900005,-0.109900005
59,2023-05-12 14:24:44.343000,-0.14531223,0.046402223,-0.12821667
60,2023-05-12 14:24:44.343000,-0.30039334,-0.09524667,-0.21735778
61,2023-05-12 14:24:44.343000,-0.5336256,-0.046402223,-0.33458444
62,2023-05-12 14:24:44.343000,-0.6117767,0.06716111,-0.38465002
63,2023-05-12 14:24:44.343000,-0.49577114,0.05250778,-0.34313223
64,2023-05-12 14:24:44.344000,-0.29795113,-0.034191113,-0.31138334
65,2023-05-12 14:24:44.386000,-0.39075556,-0.02075889,-0.3712178
66,2023-05-12 14:24:44.387000,-0.8083756,0.10379445,-0.4689067
67,2023-05-12 14:24:44.432000,-1.0403867,0.12577444,-0.4566956
68,2023-05-12 14:24:44.433000,-0.7314456,0.089141116,-0.29306668
69,2023-05-12 14:24:44.433000,-0.123332225,0.06105556,-0.10501556
70,2023-05-12 14:24:44.483000,0.21247335,0.07448778,-0.042738892
71,2023-05-12 14:24:44.483000,-0.123332225,0.15874445,-0.18805112
72,2023-05-12 14:24:44.521000,-0.91094893,0.10135223,-0.4908867
73,2023-05-12 14:24:44.523000,-1.5996556,-0.068382226,-0.7228978
74,2023-05-12 14:24:44.573000,-1.6887968,-0.09646778,-0.80593336
75,2023-05-12 14:24:44.575000,-1.1612767,-0.06960334,-0.81081784
76,2023-05-12 14:24:44.622000,-0.6337567,-0.07570889,-0.8450089
77,2023-05-12 14:24:44.622000,-0.37854445,-0.057392225,-0.7766267
78,2023-05-12 14:24:44.622000,-0.36511225,0.064718895,-0.62765115
79,2023-05-12 14:24:44.661000,-0.5360678,0.22102112,-0.59590226
80,2023-05-12 14:24:44.662000,-0.6459678,0.18927222,-0.5568267
81,2023-05-12 14:24:44.701000,-0.5104245,0.1306589,-0.46646446
82,2023-05-12 14:24:44.704000,-0.14409111,0.14409111,-0.34435335
83,2023-05-12 14:24:44.748000,0.070824444,0.15386,-0.19415668
84,2023-05-12 14:24:44.750000,-0.27475002,0.15019667,-0.17339778
85,2023-05-12 14:24:44.791000,-0.6423045,0.09768889,-0.28085557
86,2023-05-12 14:24:44.792000,-0.68138003,0.045181114,-0.40540892
87,2023-05-12 14:24:44.793000,-0.70580226,0.098910004,-0.5324045
88,2023-05-12 14:24:44.837000,-0.69114894,0.13676445,-0.6068922
89,2023-05-12 14:24:44.837000,-0.60445005,0.19049335,-0.6239878
90,2023-05-12 14:24:44.839000,-0.6887067,0.28329778,-0.68138003
91,2023-05-12 14:24:44.881000,-0.83401895,0.28085557,-0.7326667
92,2023-05-12 14:24:44.882000,-0.83768225,0.2735289,-0.7326667
93,2023-05-12 14:24:44.927000,-0.5287411,0.26009667,-0.65940005
94,2023-05-12 14:24:44.929000,-0.06594,0.23689556,-0.58613336
95,2023-05-12 14:24:44.972000,0.11844778,0.24544334,-0.5092034
96,2023-05-12 14:24:44.974000,0.06105556,0.25521225,-0.44204223
97,2023-05-12 14:24:45.019000,0.009768889,0.19293556,-0.37732336
98,2023-05-12 14:24:45.020000,-0.012211111,0.14775445,-0.34069002
99,2023-05-12 14:24:45.020000,0.029306669,0.13432223,-0.33214223
100,2023-05-12 14:24:45.061000,0.10013112,0.11356334,-0.30283555
101,2023-05-12 14:24:45.063000,0.042738892,0.06105556,-0.29306668
102,2023-05-12 14:24:45.106000,-0.11356334,0.02198,-0.2955089
103,2023-05-12 14:24:45.107000,-0.23811668,0.009768889,-0.31504667
104,2023-05-12 14:24:45.161000,-0.22224224,0.02075889,-0.31993112
105,2023-05-12 14:24:45.196000,-0.08425667,0.047623336,-0.29184556
106,2023-05-12 14:24:45.199000,0.12089001,0.08303556,-0.23079
107,2023-05-12 14:24:45.199000,0.36267,0.11356334,-0.12089001
108,2023-05-12 14:24:45.242000,0.5788067,0.14531223,0.06105556
109,2023-05-12 14:24:45.243000,0.82913446,0.14653334,0.26376
110,2023-05-12 14:24:45.243000,1.1380756,0.09402556,0.43105224
111,2023-05-12 14:24:45.290000,1.4470167,-0.02198,0.5470578
112,2023-05-12 14:24:45.295000,1.7022289,-0.16607112,0.6740534
113,2023-05-12 14:24:45.331000,1.6753645,-0.21980001,0.80227005
114,2023-05-12 14:24:45.333000,1.4018356,-0.16240779,0.8584412
115,2023-05-12 14:24:45.333000,1.1905833,-0.037854444,0.74976224
116,2023-05-12 14:24:45.377000,0.8877478,-0.029306669,0.66306335
117,2023-05-12 14:24:45.379000,0.3284789,0.10013112,0.5336256
118,2023-05-12 14:24:45.421000,0.051286668,0.4371578,0.42372558
119,2023-05-12 14:24:45.422000,0.35534334,0.9170545,0.40785113
120,2023-05-12 14:24:45.429000,1.3322322,1.3884034,0.47867557
121,2023-05-12 14:24:45.467000,2.40681,1.5141778,0.44570556
122,2023-05-12 14:24:45.467000,2.7328467,1.3212423,0.23323223
123,2023-05-12 14:24:45.512000,2.2578344,1.1722667,-0.048844445
124,2023-05-12 14:24:45.516000,1.7290934,1.2247745,-0.25643334
125,2023-05-12 14:24:45.516000,1.5740123,1.2064579,-0.26864445
126,2023-05-12 14:24:45.559000,1.6277412,0.96589893,-0.24055889
127,2023-05-12 14:24:45.603000,1.4946401,0.7717422,-0.2515489
128,2023-05-12 14:24:45.603000,1.1600556,0.7656367,-0.35778558
129,2023-05-12 14:24:45.603000,0.82425004,0.65085226,-0.48356003
130,2023-05-12 14:24:45.691000,0.55438447,0.35534334,-0.45303226
131,2023-05-12 14:24:45.692000,0.46035892,0.17095557,-0.37732336
132,2023-05-12 14:24:45.694000,0.61788225,0.13920668,-0.29795113
133,2023-05-12 14:24:45.694000,0.9817734,0.09524667,-0.13310112
134,2023-05-12 14:24:45.695000,1.3774134,-0.07693,0.12455334
135,2023-05-12 14:24:45.736000,1.56058,-0.23933779,0.31260446
136,2023-05-12 14:24:45.739000,1.7107767,-0.25643334,0.41884112
137,2023-05-12 14:24:45.781000,1.8475412,-0.15996556,0.5470578
138,2023-05-12 14:24:45.782000,1.6204145,-0.014653334,0.6789378
139,2023-05-12 14:24:45.829000,1.0232911,0.1965989,0.7228978
140,2023-05-12 14:24:45.829000,0.5092034,0.3504589,0.7070234
141,2023-05-12 14:24:45.830000,0.67161113,0.29795113,0.7986067
142,2023-05-12 14:24:45.871000,1.5386001,0.18072446,0.9610145
143,2023-05-12 14:24:45.872000,2.4251268,0.091583334,1.1014422
144,2023-05-12 14:24:45.918000,2.5093834,0.09036223,1.1087689
145,2023-05-12 14:24:45.919000,1.7425256,0.106236674,0.95735115
146,2023-05-12 14:24:45.965000,0.78761667,0.029306669,0.8120389
147,2023-05-12 14:24:45.966000,0.31016225,-0.07570889,0.8120389
148,2023-05-12 14:24:46.006000,0.3260367,-0.21613668,0.8962956
149,2023-05-12 14:24:46.007000,0.35656446,-0.47745445,0.99398446
150,2023-05-12 14:24:46.008000,0.1965989,-0.7387723,1.0928944
151,2023-05-12 14:24:46.051000,0.034191113,-0.9500245,1.2382067
152,2023-05-12 14:24:46.052000,-0.05372889,-1.1527289,1.4177101
153,2023-05-12 14:24:46.059000,-0.36755446,-1.29682,1.5129567
154,2023-05-12 14:24:46.097000,-1.284609,-1.3151367,1.4885345
155,2023-05-12 14:24:46.097000,-2.5679967,-1.2760612,1.3749712
156,2023-05-12 14:24:46.142000,-3.6865346,-1.2650712,1.1918045
157,2023-05-12 14:24:46.143000,-4.3422713,-1.1698245,1.02207
158,2023-05-12 14:24:46.185000,-4.602368,-0.97933114,0.7937223
159,2023-05-12 14:24:46.187000,-4.5779457,-0.81570226,0.56049
160,2023-05-12 14:24:46.232000,-4.3129644,-0.7815111,0.3724389
161,2023-05-12 14:24:46.233000,-3.757359,-0.69237006,0.24178001
162,2023-05-12 14:24:46.235000,-2.889149,-0.4163989,0.19171445
163,2023-05-12 14:24:46.279000,-1.7559578,-0.024422223,0.19782001
164,2023-05-12 14:24:46.279000,-0.39808223,0.37488112,0.23201112
165,2023-05-12 14:24:46.322000,1.0355023,0.7009178,0.27230778
166,2023-05-12 14:24:46.323000,2.3372068,0.97566783,0.2869611
167,2023-05-12 14:24:46.323000,3.2823467,1.1417389,0.30161446
168,2023-05-12 14:24:46.368000,3.7756758,1.1490656,0.30894113
169,2023-05-12 14:24:46.369000,3.889239,1.0464922,0.30039334
170,2023-05-12 14:24:46.411000,3.699967,0.9072856,0.29062447
171,2023-05-12 14:24:46.411000,3.2469347,0.77418447,0.2625389
172,2023-05-12 14:24:46.459000,2.5411322,0.6569578,0.23689556
173,2023-05-12 14:24:46.461000,1.6851335,0.55438447,0.20392556
174,2023-05-12 14:24:46.502000,0.81326,0.42983112,0.16729222
175,2023-05-12 14:24:46.504000,0.037854444,0.32115224,0.12943779
176,2023-05-12 14:24:46.504000,-0.5189722,0.23689556,0.09768889
177,2023-05-12 14:24:46.592000,-0.8303556,0.1526389,0.06227667
178,2023-05-12 14:24:46.593000,-0.9683412,0.07448778,0.028085556
179,2023-05-12 14:24:46.601000,-0.9683412,0.023201112,-0.0024422223
180,2023-05-12 14:24:46.602000,-0.8303556,0.02198,-0.029306669
181,2023-05-12 14:24:46.645000,-0.58124894,0.05250778,-0.046402223
182,2023-05-12 14:24:46.648000,-0.28940335,0.08303556,-0.047623336
183,2023-05-12 14:24:46.659000,-0.008547778,0.09646778,-0.042738892
184,2023-05-12 14:24:46.681000,0.25765446,0.11234222,-0.025643334
185,2023-05-12 14:24:46.685000,0.45303226,0.14042778,-0.009768889
186,2023-05-12 14:24:46.727000,0.54461557,0.17706113,0.009768889
187,2023-05-12 14:24:46.728000,0.5556056,0.19782001,0.034191113
188,2023-05-12 14:24:46.729000,0.5140878,0.20148334,0.058613338
189,2023-05-12 14:24:46.772000,0.44692668,0.18683001,0.08425667
190,2023-05-12 14:24:46.823000,0.36389112,0.14409111,0.106236674
191,2023-05-12 14:24:46.827000,0.26498112,0.09402556,0.12943779
192,2023-05-12 14:24:46.829000,0.15141778,0.064718895,0.12821667
193,2023-05-12 14:24:46.867000,0.04396,0.029306669,0.117226675
194,2023-05-12 14:24:46.868000,-0.047623336,-0.0024422223,0.09768889
195,2023-05-12 14:24:46.907000,-0.09036223,-0.026864445,0.078151114
196,2023-05-12 14:24:46.908000,-0.085477784,-0.023201112,0.05006556
197,2023-05-12 14:24:46.909000,-0.04396,-0.012211111,0.02198
198,2023-05-12 14:24:46.957000,0,0.0048844446,-0.007326667
199,2023-05-12 14:24:46.996000,0.01099,0.036633335,-0.025643334
200,2023-05-12 14:24:46.996000,0.007326667,0.05006556,-0.036633335
201,2023-05-12 14:24:46.998000,0.029306669,0.051286668,-0.037854444
202,2023-05-12 14:24:47.046000,0.085477784,0.059834447,-0.045181114
203,2023-05-12 14:24:47.047000,0.14409111,0.070824444,-0.06105556
204,2023-05-12 14:24:47.047000,0.18438779,0.085477784,-0.08059334
205,2023-05-12 14:24:47.087000,0.20148334,0.11112112,-0.08669889
206,2023-05-12 14:24:47.087000,0.21247335,0.10501556,-0.09036223
207,2023-05-12 14:24:47.182000,0.22468445,0.07204556,-0.08792
208,2023-05-12 14:24:47.186000,0.2283478,0.05617111,-0.08425667
209,2023-05-12 14:24:47.187000,0.20392556,0.05372889,-0.07570889
210,2023-05-12 14:24:47.221000,0.13798556,0.037854444,-0.06716111
211,2023-05-12 14:24:47.226000,0.057392225,0.029306669,-0.05617111
212,2023-05-12 14:24:47.226000,-0.01099,0.012211111,-0.047623336
213,2023-05-12 14:24:47.226000,-0.045181114,0.0012211112,-0.04396
214,2023-05-12 14:24:47.274000,-0.051286668,-0.02198,-0.039075557
215,2023-05-12 14:24:47.274000,-0.028085556,-0.015874445,-0.039075557
216,2023-05-12 14:24:47.311000,-0.009768889,0,-0.04151778
217,2023-05-12 14:24:47.314000,0.0048844446,-0.0024422223,-0.035412222
218,2023-05-12 14:24:47.359000,0.023201112,0.0036633336,-0.029306669
219,2023-05-12 14:24:47.360000,0.04151778,0.017095556,-0.017095556
220,2023-05-12 14:24:47.402000,0.051286668,0.025643334,0.007326667
221,2023-05-12 14:24:47.403000,0.051286668,0.007326667,0.03174889
222,2023-05-12 14:24:47.403000,0.04396,-0.0061055557,0.045181114
223,2023-05-12 14:24:47.447000,0.02198,-0.008547778,0.04029667
224,2023-05-12 14:24:47.448000,-0.045181114,-0.015874445,0.03174889
225,2023-05-12 14:24:47.491000,-0.12577444,-0.024422223,0.025643334
226,2023-05-12 14:24:47.492000,-0.17095557,-0.048844445,0.024422223
227,2023-05-12 14:24:47.494000,-0.17095557,-0.06349778,0.028085556
228,2023-05-12 14:24:47.537000,-0.14409111,-0.06960334,0.026864445
229,2023-05-12 14:24:47.539000,-0.09768889,-0.06227667,0.03297
230,2023-05-12 14:24:47.581000,-0.047623336,-0.03052778,0.034191113
231,2023-05-12 14:24:47.582000,-0.009768889,-0.0024422223,0.03174889
232,2023-05-12 14:24:47.627000,-0.014653334,-0.01099,0.02198
233,2023-05-12 14:24:47.627000,-0.04151778,-0.04029667,0.018316668
234,2023-05-12 14:24:47.628000,-0.037854444,-0.03297,0.013432222
235,2023-05-12 14:24:47.673000,0.0061055557,-0.008547778,0.01099
236,2023-05-12 14:24:47.673000,0.047623336,-0.023201112,0.012211111
237,2023-05-12 14:24:47.717000,0.064718895,-0.05250778,0.013432222
238,2023-05-12 14:24:47.719000,0.05617111,-0.04396,0.008547778
239,2023-05-12 14:24:47.761000,0.0024422223,-0.01099,0.0061055557
240,2023-05-12 14:24:47.763000,-0.08792,-0.047623336,0.012211111
241,2023-05-12 14:24:47.808000,-0.15386,-0.11234222,0.026864445
242,2023-05-12 14:24:47.808000,-0.16240779,-0.09646778,0.039075557
243,2023-05-12 14:24:47.810000,-0.14409111,-0.045181114,0.042738892
244,2023-05-12 14:24:47.853000,-0.12821667,-0.02198,0.035412222
245,2023-05-12 14:24:47.853000,-0.109900005,-0.007326667,0.034191113
246,2023-05-12 14:24:47.897000,-0.078151114,-0.02198,0.036633335
247,2023-05-12 14:24:47.898000,-0.023201112,-0.024422223,0.039075557
248,2023-05-12 14:24:47.899000,0.03052778,-0.0012211112,0.042738892
249,2023-05-12 14:24:47.943000,0.05617111,-0.007326667,0.047623336
250,2023-05-12 14:24:47.947000,0.037854444,-0.042738892,0.048844445
251,2023-05-12 14:24:47.986000,-0.007326667,-0.08303556,0.04396
252,2023-05-12 14:24:47.988000,-0.06105556,-0.109900005,0.02198
253,2023-05-12 14:24:48.032000,-0.10013112,-0.109900005,0.0012211112
254,2023-05-12 14:24:48.032000,-0.11234222,-0.12089001,-0.02075889
255,2023-05-12 14:24:48.040000,-0.11844778,-0.15386,-0.037854444
256,2023-05-12 14:24:48.080000,-0.13676445,-0.17828223,-0.047623336
257,2023-05-12 14:24:48.080000,-0.14409111,-0.1746189,-0.047623336
258,2023-05-12 14:24:48.121000,-0.14287001,-0.14531223,-0.04396
259,2023-05-12 14:24:48.122000,-0.14775445,-0.11966889,-0.039075557
260,2023-05-12 14:24:48.167000,-0.14653334,-0.12455334,-0.028085556
261,2023-05-12 14:24:48.168000,-0.13432223,-0.12455334,-0.02198
262,2023-05-12 14:24:48.211000,-0.098910004,-0.085477784,-0.02198
263,2023-05-12 14:24:48.212000,-0.04029667,-0.03174889,-0.012211111
264,2023-05-12 14:24:48.215000,0.034191113,0.013432222,-0.0036633336
265,2023-05-12 14:24:48.257000,0.09524667,0.04396,0.0012211112
266,2023-05-12 14:24:48.260000,0.12577444,0.047623336,0.008547778
267,2023-05-12 14:24:48.301000,0.11966889,0.051286668,0.012211111
268,2023-05-12 14:24:48.302000,0.09402556,0.048844445,0.007326667
269,2023-05-12 14:24:48.303000,0.05617111,0.04151778,0.0036633336
270,2023-05-12 14:24:48.349000,0.014653334,0.025643334,0
271,2023-05-12 14:24:48.350000,-0.009768889,0.008547778,-0.008547778
272,2023-05-12 14:24:48.394000,-0.023201112,-0.01099,-0.015874445
273,2023-05-12 14:24:48.437000,-0.018316668,0.0012211112,-0.019537779
274,2023-05-12 14:24:48.438000,0.0024422223,0.0012211112,-0.02198
275,2023-05-12 14:24:48.439000,0.009768889,-0.0024422223,-0.02075889
276,2023-05-12 14:24:48.440000,0.015874445,0.008547778,-0.013432222
277,2023-05-12 14:24:48.482000,0.03174889,0.017095556,-0.0024422223
278,2023-05-12 14:24:48.482000,0.042738892,0.015874445,0.012211111
279,2023-05-12 14:24:48.527000,0.05006556,0.0048844446,0.023201112
280,2023-05-12 14:24:48.528000,0.037854444,-0.0036633336,0.026864445
281,2023-05-12 14:24:48.574000,0.017095556,-0.01099,0.02198
282,2023-05-12 14:24:48.625000,-0.0036633336,-0.014653334,0.019537779
283,2023-05-12 14:24:48.627000,-0.01099,-0.023201112,0.017095556
284,2023-05-12 14:24:48.628000,-0.015874445,-0.035412222,0.012211111
285,2023-05-12 14:24:48.661000,-0.029306669,-0.04029667,0.009768889
286,2023-05-12 14:24:48.664000,-0.058613338,-0.045181114,0.0061055557
287,2023-05-12 14:24:48.665000,-0.07570889,-0.04029667,0.0036633336
288,2023-05-12 14:24:48.713000,-0.06227667,-0.024422223,0.0061055557
289,2023-05-12 14:24:48.714000,-0.037854444,-0.007326667,0.008547778
290,2023-05-12 14:24:48.798000,-0.019537779,-0.0012211112,0.009768889
291,2023-05-12 14:24:48.799000,-0.01099,-0.0012211112,0.0048844446
292,2023-05-12 14:24:48.800000,-0.015874445,0.0048844446,-0.0061055557
293,2023-05-12 14:24:48.842000,-0.02198,0.014653334,-0.017095556
294,2023-05-12 14:24:48.887000,-0.028085556,0.03297,-0.028085556
295,2023-05-12 14:24:48.890000,-0.028085556,0.026864445,-0.028085556
296,2023-05-12 14:24:48.899000,-0.008547778,0.015874445,-0.024422223
297,2023-05-12 14:24:48.900000,0.0024422223,0.014653334,-0.025643334
298,2023-05-12 14:24:48.939000,-0.0012211112,0.023201112,-0.025643334
299,2023-05-12 14:24:48.940000,-0.012211111,0.03052778,-0.014653334
300,2023-05-12 14:24:48.941000,-0.01099,0.03174889,-0.012211111
301,2023-05-12 14:24:48.978000,-0.01099,0.028085556,-0.014653334
302,2023-05-12 14:24:48.979000,-0.019537779,0.024422223,-0.013432222
303,2023-05-12 14:24:48.980000,-0.04029667,0.014653334,-0.018316668
304,2023-05-12 14:24:48.982000,-0.042738892,0.014653334,-0.023201112
305,2023-05-12 14:24:49.026000,-0.045181114,0.01099,-0.023201112
306,2023-05-12 14:24:49.029000,-0.04151778,0.0036633336,-0.018316668
307,2023-05-12 14:24:49.067000,-0.014653334,0,-0.0036633336
308,2023-05-12 14:24:49.071000,0.007326667,0.0012211112,0.0061055557
309,2023-05-12 14:24:49.112000,0.008547778,-0.0048844446,0.014653334
310,2023-05-12 14:24:49.114000,-0.012211111,-0.009768889,0.023201112
311,2023-05-12 14:24:49.115000,-0.037854444,-0.01099,0.028085556
312,2023-05-12 14:24:49.159000,-0.047623336,-0.01099,0.03297
313,2023-05-12 14:24:49.207000,-0.047623336,-0.01099,0.034191113
314,2023-05-12 14:24:49.209000,-0.045181114,-0.0048844446,0.036633335
315,2023-05-12 14:24:49.211000,-0.039075557,0.0024422223,0.03297
316,2023-05-12 14:24:49.246000,-0.03052778,0.008547778,0.026864445
317,2023-05-12 14:24:49.251000,-0.029306669,0.02075889,0.023201112
318,2023-05-12 14:24:49.252000,-0.014653334,0.023201112,0.014653334
319,2023-05-12 14:24:49.292000,0.012211111,0.018316668,0.014653334
320,2023-05-12 14:24:49.293000,0.03052778,0.023201112,0.012211111
321,2023-05-12 14:24:49.336000,0.029306669,0.03174889,0.008547778
322,2023-05-12 14:24:49.340000,0.017095556,0.034191113,0.0061055557
323,2023-05-12 14:24:49.381000,0.0036633336,0.025643334,0
324,2023-05-12 14:24:49.384000,-0.008547778,0.02075889,-0.0036633336
325,2023-05-12 14:24:49.429000,-0.017095556,0.014653334,-0.0061055557
326,2023-05-12 14:24:49.429000,-0.017095556,0.01099,-0.009768889
327,2023-05-12 14:24:49.439000,-0.0024422223,0.013432222,-0.015874445
328,2023-05-12 14:24:49.475000,0.01099,0.015874445,-0.019537779
329,2023-05-12 14:24:49.476000,0.015874445,0.008547778,-0.023201112
330,2023-05-12 14:24:49.516000,0.014653334,0.009768889,-0.03052778
331,2023-05-12 14:24:49.517000,0.012211111,0,-0.025643334
332,2023-05-12 14:24:49.563000,0.01099,-0.019537779,-0.02198
333,2023-05-12 14:24:49.564000,0.009768889,-0.028085556,-0.026864445
334,2023-05-12 14:24:49.565000,0,-0.026864445,-0.026864445
335,2023-05-12 14:24:49.607000,-0.017095556,-0.03174889,-0.02198
336,2023-05-12 14:24:49.609000,-0.019537779,-0.026864445,-0.015874445
337,2023-05-12 14:24:49.652000,-0.012211111,-0.01099,-0.019537779
338,2023-05-12 14:24:49.652000,-0.007326667,-0.0012211112,-0.018316668
339,2023-05-12 14:24:49.659000,-0.0048844446,0.01099,-0.014653334
340,2023-05-12 14:24:49.697000,0.0048844446,0.026864445,-0.015874445
341,2023-05-12 14:24:49.698000,0.017095556,0.03297,-0.017095556
342,2023-05-12 14:24:49.750000,0.029306669,0.04151778,-0.019537779
343,2023-05-12 14:24:49.751000,0.042738892,0.05617111,-0.015874445
344,2023-05-12 14:24:49.788000,0.05250778,0.07204556,-0.013432222
345,2023-05-12 14:24:49.798000,0.06716111,0.081814446,-0.0048844446
346,2023-05-12 14:24:49.832000,0.06960334,0.09280445,0.0024422223
347,2023-05-12 14:24:49.832000,0.06349778,0.08425667,0.0048844446
348,2023-05-12 14:24:49.835000,0.06349778,0.085477784,0.0036633336
349,2023-05-12 14:24:49.877000,0.06105556,0.08669889,0.0036633336
350,2023-05-12 14:24:49.878000,0.05617111,0.07937223,0.0024422223
351,2023-05-12 14:24:49.927000,0.054950003,0.070824444,0.0012211112
352,2023-05-12 14:24:49.929000,0.05250778,0.047623336,0
353,2023-05-12 14:24:49.967000,0.05006556,0.036633335,0.0012211112
354,2023-05-12 14:24:49.969000,0.046402223,0.045181114,0.0012211112
355,2023-05-12 14:24:50.011000,0.051286668,0.045181114,0.0061055557
356,2023-05-12 14:24:50.012000,0.057392225,0.046402223,0.009768889
357,2023-05-12 14:24:50.014000,0.06105556,0.047623336,0.012211111
358,2023-05-12 14:24:50.069000,0.058613338,0.047623336,0.008547778
359,2023-05-12 14:24:50.070000,0.048844445,0.05250778,0.008547778
360,2023-05-12 14:24:50.071000,0.04029667,0.05006556,0.008547778
361,2023-05-12 14:24:50.106000,0.017095556,0.03174889,0.012211111
362,2023-05-12 14:24:50.107000,-0.026864445,0.01099,0.0036633336
363,2023-05-12 14:24:50.148000,-0.058613338,0.008547778,-0.0061055557
364,2023-05-12 14:24:50.155000,-0.06594,0.009768889,-0.007326667
365,2023-05-12 14:24:50.236000,-0.05372889,0.0024422223,-0.012211111
366,2023-05-12 14:24:50.238000,-0.03052778,-0.0036633336,-0.008547778
367,2023-05-12 14:24:50.240000,-0.017095556,-0.0012211112,-0.0061055557
368,2023-05-12 14:24:50.241000,-0.012211111,-0.017095556,0
369,2023-05-12 14:24:50.284000,-0.0036633336,-0.024422223,0.0024422223
370,2023-05-12 14:24:50.288000,0.0061055557,-0.02198,-0.0024422223
371,2023-05-12 14:24:50.289000,0.0048844446,0.01099,0
372,2023-05-12 14:24:50.333000,0.0061055557,0.03174889,-0.0012211112
373,2023-05-12 14:24:50.335000,0.018316668,0.039075557,-0.0012211112
374,2023-05-12 14:24:50.373000,0.024422223,0.035412222,0.0012211112
375,2023-05-12 14:24:50.375000,0.026864445,0.02075889,-0.0061055557
376,2023-05-12 14:24:50.376000,0.026864445,0.009768889,-0.01099
377,2023-05-12 14:24:50.417000,0.01099,0.01099,-0.02198
378,2023-05-12 14:24:50.418000,-0.007326667,0.018316668,-0.025643334
379,2023-05-12 14:24:50.507000,-0.024422223,0.042738892,-0.026864445
380,2023-05-12 14:24:50.512000,-0.068382226,0.07204556,-0.018316668
381,2023-05-12 14:24:50.513000,-0.15141778,0.11844778,-0.024422223
382,2023-05-12 14:24:50.518000,-0.27841336,0.16362889,-0.039075557
383,2023-05-12 14:24:50.554000,-0.40540892,0.21003112,-0.06594
384,2023-05-12 14:24:50.556000,-0.48966557,0.24055889,-0.08792
385,2023-05-12 14:24:50.557000,-0.5360678,0.27719223,-0.10135223
386,2023-05-12 14:24:50.599000,-0.5788067,0.2735289,-0.08669889
387,2023-05-12 14:24:50.600000,-0.6789378,0.21980001,-0.08792
388,2023-05-12 14:24:50.642000,-0.94758224,0.11234222,-0.109900005
389,2023-05-12 14:24:50.686000,-1.6106457,-0.0048844446,-0.18194556
390,2023-05-12 14:24:50.688000,-2.4629812,-0.017095556,-0.26864445
391,2023-05-12 14:24:50.689000,-2.9575312,0.02075889,-0.32359445
392,2023-05-12 14:24:50.689000,-2.578987,-0.012211111,-0.22224224
393,2023-05-12 14:24:50.742000,-1.7950335,-0.109900005,-0.059834447
394,2023-05-12 14:24:50.743000,-1.3212423,-0.21003112,0.08792
395,2023-05-12 14:24:50.776000,-1.3810767,-0.5104245,0.33458444
396,2023-05-12 14:24:50.778000,-1.790149,-1.0733567,0.6569578
397,2023-05-12 14:24:50.823000,-2.4886246,-1.4348056,0.70946556
398,2023-05-12 14:24:50.825000,-2.8366413,-1.5740123,0.70336
399,2023-05-12 14:24:50.827000,-2.6840024,-1.8267823,0.54095227
400,2023-05-12 14:24:50.870000,-2.2712667,-2.3017945,0.3492378
401,2023-05-12 14:24:50.872000,-1.790149,-2.658359,0.18072446
402,2023-05-12 14:24:50.911000,-1.2259957,-2.8867068,0.018316668
403,2023-05-12 14:24:50.919000,-0.5140878,-3.043009,-0.117226675
404,2023-05-12 14:24:50.920000,0.04151778,-3.2017534,-0.17584
405,2023-05-12 14:24:50.957000,-0.013432222,-3.4447546,-0.36633334
406,2023-05-12 14:24:50.958000,-0.5153089,-3.789108,-0.64841
407,2023-05-12 14:24:51.003000,-0.8535567,-4.120029,-0.89263225
408,2023-05-12 14:24:51.005000,-0.5702589,-4.192075,-1.1576134
409,2023-05-12 14:24:51.047000,0,-4.2140546,-1.3126945
410,2023-05-12 14:24:51.048000,0.40296668,-4.3325024,-1.4396901
411,2023-05-12 14:24:51.095000,0.56171113,-4.570619,-1.526389
412,2023-05-12 14:24:51.096000,0.5641534,-4.7843137,-1.5850023
413,2023-05-12 14:24:51.099000,0.5238567,-4.899098,-1.6485001
414,2023-05-12 14:24:51.142000,0.5580478,-4.9687014,-1.7877067
415,2023-05-12 14:24:51.146000,0.5470578,-5.0248723,-1.8389934
416,2023-05-12 14:24:51.181000,0.34801668,-5.0212092,-1.834109
417,2023-05-12 14:24:51.185000,0.04151778,-4.8917713,-1.9830846
418,2023-05-12 14:24:51.226000,-0.55316335,-4.811178,-2.2407389
419,2023-05-12 14:24:54.022000,3.2249546,-0.3492378,-2.5741024
420,2023-05-12 14:24:54.022000,2.898918,-0.7900589,-2.3469756
421,2023-05-12 14:24:54.061000,1.7327567,-1.0672512,-1.9940746
422,2023-05-12 14:24:54.063000,0.5653745,-0.86943114,-1.559359
423,2023-05-12 14:24:54.106000,-0.02075889,-0.4933289,-1.16494
424,2023-05-12 14:24:54.109000,0.19904111,-0.14531223,-0.88286334
425,2023-05-12 14:24:54.111000,0.4151778,-0.14531223,-0.61666113
426,2023-05-12 14:24:54.111000,-0.21613668,-0.35656446,-0.16607112
427,2023-05-12 14:24:54.114000,-0.77906895,-0.13798556,0.35656446
428,2023-05-12 14:24:54.116000,-0.6752745,0.2820767,0.7119078
429,2023-05-12 14:24:54.117000,-0.45059,0.39686114,1.0269545
430,2023-05-12 14:24:54.246000,-0.31138334,0.5836911,1.4103833
431,2023-05-12 14:24:54.248000,-0.106236674,0.86943114,1.8218979
432,2023-05-12 14:24:54.248000,0.19049335,0.9463611,2.2224224
433,2023-05-12 14:24:54.287000,0.33580557,0.9646778,2.5313635
434,2023-05-12 14:24:54.290000,0.057392225,1.0464922,2.73651
435,2023-05-12 14:24:54.292000,-0.6337567,1.1038845,2.843968
436,2023-05-12 14:24:54.293000,-1.5251678,1.053819,2.9050233
437,2023-05-12 14:24:54.377000,-2.2785935,0.9646778,2.9843957
438,2023-05-12 14:24:54.378000,-2.7755857,0.9072856,3.0906324
439,2023-05-12 14:24:54.379000,-3.1004012,0.83524,3.1675622
440,2023-05-12 14:24:54.382000,-3.1614568,0.6068922,3.240829
441,2023-05-12 14:24:54.420000,-2.9343302,0.43227336,3.3543923
442,2023-05-12 14:24:54.424000,-2.5899768,0.62643003,3.4630713
443,2023-05-12 14:24:54.471000,-2.4483278,0.97688895,3.4362068
444,2023-05-12 14:24:54.472000,-2.405589,0.9365923,3.4069002
445,2023-05-12 14:24:54.473000,-2.1760201,0.7937223,3.5192423
446,2023-05-12 14:24:54.474000,-1.7816012,0.93537116,3.5973935
447,2023-05-12 14:24:54.474000,-1.6167512,1.0599245,3.5204635
448,2023-05-12 14:24:54.512000,-1.9330189,0.92193896,3.5070312
449,2023-05-12 14:24:54.522000,-2.3799458,0.6764956,3.6389112
450,2023-05-12 14:24:54.522000,-2.60463,0.6984756,3.834289
451,2023-05-12 14:24:54.556000,-2.658359,0.92193896,3.9331992
452,2023-05-12 14:24:54.558000,-2.8415256,0.97078335,3.9881492
453,2023-05-12 14:24:54.561000,-3.1700046,0.69114894,4.096828
454,2023-05-12 14:24:54.562000,-3.4020157,0.3394689,4.221381
455,2023-05-12 14:24:54.578000,-3.2640302,0.32237336,4.4240856
456,2023-05-12 14:24:54.578000,-2.7316256,0.26009667,4.4656034
457,2023-05-12 14:24:54.604000,-2.394599,0.11356334,4.512006
458,2023-05-12 14:24:54.604000,-2.041698,0.2759711,4.6426644
459,2023-05-12 14:24:54.604000,-1.7828223,0.49455002,4.6182423
460,2023-05-12 14:24:54.646000,-1.2137845,0.6667267,4.4717093
461,2023-05-12 14:24:54.648000,-0.8205867,0.83890337,4.4973526
462,2023-05-12 14:24:54.698000,-0.79616445,0.9512456,4.514448
463,2023-05-12 14:24:54.698000,-1.1136534,0.98055226,4.336166
464,2023-05-12 14:24:54.739000,-1.3126945,0.80104893,3.9331992
465,2023-05-12 14:24:54.741000,-1.3273479,0.70580226,3.7158413
466,2023-05-12 14:24:54.746000,-1.2504178,0.6874856,3.5668657
467,2023-05-12 14:24:54.789000,-0.7119078,0.64841,3.3800356
468,2023-05-12 14:24:54.790000,0.39808223,0.49943447,2.6937711
469,2023-05-12 14:24:54.828000,0.48966557,0.31504667,2.1918945
470,2023-05-12 14:24:54.828000,0.047623336,0.07204556,1.7229879
471,2023-05-12 14:24:54.830000,-0.18683001,-0.17950334,1.0831256
472,2023-05-12 14:24:54.832000,0.13554333,-0.39930335,0.40663
473,2023-05-12 14:24:54.837000,0.5690378,-0.49943447,-0.28574002
474,2023-05-12 14:24:54.873000,0.60933447,-0.5262989,-0.9304867
475,2023-05-12 14:24:54.874000,0.56659555,-0.53118336,-1.4689968
476,2023-05-12 14:24:54.874000,0.8950745,-0.5470578,-1.8438779
477,2023-05-12 14:24:54.875000,1.4531223,-0.51653004,-2.1125224
478,2023-05-12 14:24:54.916000,1.7168823,-0.52141446,-2.4703078
479,2023-05-12 14:24:54.917000,1.4555645,-0.6972545,-2.8696113
480,2023-05-12 14:24:54.918000,0.8498934,-0.9133912,-3.1919847
481,2023-05-12 14:24:54.919000,0.36267,-0.9817734,-3.5082524
482,2023-05-12 14:24:54.922000,0.4921078,-0.9927634,-3.7304945
483,2023-05-12 14:24:54.923000,1.1283067,-0.9426978,-3.7707913
484,2023-05-12 14:24:54.961000,2.0038433,-0.87920004,-3.8306258
485,2023-05-12 14:24:54.961000,2.7987869,-0.9964267,-3.9051135
486,2023-05-12 14:24:54.966000,3.032019,-1.1881411,-3.8355103
487,2023-05-12 14:24:54.968000,2.756048,-1.3590968,-3.9832647
488,2023-05-12 14:24:54.969000,2.3982623,-1.5752333,-4.129798
489,2023-05-12 14:24:54.970000,2.0490246,-1.7852645,-4.116366
490,2023-05-12 14:24:54.970000,1.72543,-1.8426567,-4.1603255
491,2023-05-12 14:24:54.970000,1.5031879,-1.8035812,-4.273889
492,2023-05-12 14:24:54.970000,1.2785034,-1.7400835,-4.441181
493,2023-05-12 14:24:55.006000,0.91583335,-1.68147,-4.6096945
494,2023-05-12 14:24:55.008000,0.34191114,-1.6350678,-4.76966
495,2023-05-12 14:24:55.009000,0.025643334,-1.6033189,-4.7012777
496,2023-05-12 14:24:55.009000,0.24055889,-1.2357645,-4.535207
497,2023-05-12 14:24:55.010000,0.99886894,-0.7106867,-4.4778147
498,2023-05-12 14:24:55.011000,1.8853956,-0.46646446,-4.4949102
499,2023-05-12 14:24:55.012000,2.4031467,-0.5568267,-4.4289703
500,2023-05-12 14:24:55.013000,2.4373379,-0.8498934,-4.244582
501,2023-05-12 14:24:55.018000,2.2468445,-0.9549089,-4.054089
502,2023-05-12 14:24:55.019000,2.052688,-0.5678167,-4.0137925
503,2023-05-12 14:24:55.019000,1.8609734,-0.19782001,-4.0467625
504,2023-05-12 14:24:55.019000,1.7803801,-0.35412225,-3.9857068
505,2023-05-12 14:24:55.019000,1.9757578,-0.59834445,-3.8831334
506,2023-05-12 14:24:55.051000,2.2053268,-0.7119078,-3.7805603
507,2023-05-12 14:24:55.052000,2.1796834,-0.6996967,-3.6963034
508,2023-05-12 14:24:55.098000,2.3579657,-0.4359367,-3.5204635
509,2023-05-12 14:24:55.098000,2.8305357,-0.17217667,-3.30799
510,2023-05-12 14:24:55.141000,2.9746268,-0.14042778,-3.085748
511,2023-05-12 14:24:55.142000,2.426348,-0.03174889,-2.865948
512,2023-05-12 14:24:55.142000,1.7010078,0.06349778,-2.5985246
513,2023-05-12 14:24:55.187000,1.5080723,-0.02198,-2.2334123
514,2023-05-12 14:24:55.188000,1.4006145,-0.27108666,-1.8792901
515,2023-05-12 14:24:55.231000,1.053819,-0.42861003,-1.4983034
516,2023-05-12 14:24:55.234000,0.70458114,-0.46768558,-1.0916734
517,2023-05-12 14:24:55.279000,0.31871,-0.49821335,-0.69114894
518,2023-05-12 14:24:55.279000,-0.23445335,-0.4481478,-0.2503278
519,2023-05-12 14:24:55.280000,-0.4493689,-0.20514667,0.25277
520,2023-05-12 14:24:55.322000,0.08669889,0.17584,0.68504333
521,2023-05-12 14:24:55.372000,0.53118336,0.46280113,1.0611455
522,2023-05-12 14:24:55.372000,0.09402556,0.3602278,1.5544745
523,2023-05-12 14:24:55.373000,-0.5153089,0.27963445,2.1051955
524,2023-05-12 14:24:55.412000,-0.72778225,0.52141446,2.592419
525,2023-05-12 14:24:55.414000,-0.63619894,0.8645467,3.0051546
526,2023-05-12 14:24:55.456000,-0.60811335,1.07702,3.2371657
527,2023-05-12 14:24:55.457000,-1.4934189,0.8205867,3.2774622
528,2023-05-12 14:24:55.505000,-2.5875347,0.5788067,3.360498
529,2023-05-12 14:24:55.546000,-3.3434024,0.5250778,3.52779
530,2023-05-12 14:24:55.549000,-3.4545236,0.48722336,3.6608913
531,2023-05-12 14:24:55.553000,-3.1895423,0.4151778,3.6950824
532,2023-05-12 14:24:55.592000,-3.0246923,0.21125223,3.5607603
533,2023-05-12 14:24:55.595000,-2.8867068,-0.013432222,3.5216846
534,2023-05-12 14:24:55.596000,-2.559449,0.17828223,3.6987457
535,2023-05-12 14:24:55.643000,-1.8756268,0.9317078,3.9136612
536,2023-05-12 14:24:55.643000,-0.9915423,1.4372479,3.9075558
537,2023-05-12 14:24:55.644000,-0.38709223,1.3847401,3.9295356
538,2023-05-12 14:24:55.688000,-0.21125223,1.2833878,4.0040236
539,2023-05-12 14:24:55.688000,-0.40296668,1.5141778,3.9722745
540,2023-05-12 14:24:55.730000,-0.8523356,1.7535156,3.8660378
541,2023-05-12 14:24:55.732000,-1.6387311,1.801139,3.8294046
542,2023-05-12 14:24:55.771000,-2.3872724,1.6436156,3.789108
543,2023-05-12 14:24:55.781000,-2.724299,1.4262578,3.7756758
544,2023-05-12 14:24:55.818000,-2.6498113,1.3590968,4.01135
545,2023-05-12 14:24:55.820000,-2.3201113,1.405499,4.272668
546,2023-05-12 14:24:55.864000,-2.119849,1.4152678,4.3007536
547,2023-05-12 14:24:55.867000,-2.471529,1.1502867,4.354482
548,2023-05-12 14:24:55.909000,-2.4116945,1.0525978,4.4680457
549,2023-05-12 14:24:55.911000,-1.7596211,1.0672512,4.4656034
550,2023-05-12 14:24:55.953000,-0.89263225,1.0562612,4.393558
551,2023-05-12 14:24:55.959000,-0.89385337,1.1527289,4.29709
552,2023-05-12 14:24:55.999000,-1.7877067,1.0403867,4.0919433
553,2023-05-12 14:24:55.999000,-2.40681,0.8303556,3.7866657
554,2023-05-12 14:24:56.004000,-1.9806423,0.74732006,3.5754135
555,2023-05-12 14:24:56.043000,-0.99886894,0.7265611,3.4471967
556,2023-05-12 14:24:56.043000,-0.72778225,0.6435256,3.12116
557,2023-05-12 14:24:56.092000,-0.6935911,0.4163989,2.6546957
558,2023-05-12 14:24:56.134000,-0.35168,0.22346334,1.976979
559,2023-05-12 14:24:56.135000,0.04151778,0.13554333,1.3212423
560,2023-05-12 14:24:56.136000,0.48844448,0.08669889,0.8547778
561,2023-05-12 14:24:56.182000,0.8071545,0.014653334,0.42006224
562,2023-05-12 14:24:56.183000,0.5006556,-0.13920668,-0.15141778
563,2023-05-12 14:24:56.224000,-0.12455334,-0.3614489,-0.8327978
564,2023-05-12 14:24:56.266000,-0.18194556,-0.53973114,-1.35177
565,2023-05-12 14:24:56.268000,0.41151446,-0.59956557,-1.6423945
566,2023-05-12 14:24:56.274000,1.3102523,-0.55438447,-1.9061545
567,2023-05-12 14:24:56.276000,1.8853956,-0.56659555,-2.251729
568,2023-05-12 14:24:56.311000,1.6680379,-0.67039,-2.614399
569,2023-05-12 14:24:56.321000,0.8975167,-0.81936556,-2.95631
570,2023-05-12 14:24:56.326000,0.25643334,-0.8816423,-3.2786834
571,2023-05-12 14:24:56.402000,0.22590557,-0.84623003,-3.4642923
572,2023-05-12 14:24:56.407000,0.73999333,-0.7766267,-3.5106945
573,2023-05-12 14:24:56.408000,1.5483689,-0.72411895,-3.504589
574,2023-05-12 14:24:56.408000,2.2126534,-0.74609894,-3.5680869
575,2023-05-12 14:24:56.449000,2.394599,-0.8669889,-3.54977
576,2023-05-12 14:24:56.450000,2.218759,-0.9720045,-3.6108258
577,2023-05-12 14:24:56.450000,2.0270445,-1.0709145,-3.723168
578,2023-05-12 14:24:56.497000,1.9623257,-1.2186689,-3.8294046
579,2023-05-12 14:24:56.537000,1.8585312,-1.3090311,-3.8355103
580,2023-05-12 14:24:56.537000,1.5532534,-1.3615389,-3.8465002
581,2023-05-12 14:24:56.587000,1.2504178,-1.3163579,-3.8623745
582,2023-05-12 14:24:56.625000,1.1185378,-1.1392968,-3.8611536
583,2023-05-12 14:24:56.626000,1.1075479,-0.9976478,-3.944189
584,2023-05-12 14:24:56.630000,0.8071545,-0.9414767,-4.1676526
585,2023-05-12 14:24:56.677000,0.19293556,-1.0025322,-4.4106536
586,2023-05-12 14:24:56.678000,-0.32725778,-1.1258645,-4.4973526
587,2023-05-12 14:24:56.720000,-0.46280113,-1.009859,-4.2812157
588,2023-05-12 14:24:56.772000,-0.13798556,-0.46158,-3.999139
589,2023-05-12 14:24:56.773000,0.61788225,0.048844445,-3.888018
590,2023-05-12 14:24:56.805000,1.4946401,0.12455334,-3.8513846
591,2023-05-12 14:24:56.814000,2.0881002,-0.034191113,-3.822078
592,2023-05-12 14:24:56.819000,2.383609,-0.04151778,-3.712178
593,2023-05-12 14:24:56.855000,2.5838711,0.12699556,-3.603499
594,2023-05-12 14:24:56.899000,2.6986556,0.20514667,-3.5693078
595,2023-05-12 14:24:56.899000,2.7829123,0.20881,-3.5119157
596,2023-05-12 14:24:56.901000,2.8000078,0.13676445,-3.4569657
597,2023-05-12 14:24:56.988000,2.4239056,-0.085477784,-3.4203324
598,2023-05-12 14:24:56.989000,1.7290934,-0.06594,-3.2823467
599,2023-05-12 14:24:57.033000,1.4555645,0.39686114,-3.1333714
600,2023-05-12 14:24:57.076000,1.4201523,0.68504333,-3.0674312
601,2023-05-12 14:24:57.077000,1.34078,0.54339445,-2.966079
602,2023-05-12 14:24:57.090000,1.2992623,0.24422224,-2.7951233
603,2023-05-12 14:24:57.132000,1.1136534,0.02075889,-2.54968
604,2023-05-12 14:24:57.132000,1.1624979,0.30772,-2.1210701
605,2023-05-12 14:24:57.173000,1.3981723,0.7754056,-1.812129
606,2023-05-12 14:24:57.217000,1.3151367,0.6423045,-1.5178412
607,2023-05-12 14:24:57.221000,0.96223557,0.13554333,-1.2601867
608,2023-05-12 14:24:57.223000,0.39197668,-0.15508112,-0.9976478
609,2023-05-12 14:24:57.268000,-0.015874445,-0.09280445,-0.59834445
610,2023-05-12 14:24:57.269000,0.16851334,0.14531223,-0.18438779
611,2023-05-12 14:24:57.305000,0.46402225,0.05006556,0.16973445
612,2023-05-12 14:24:57.347000,0.51164556,-0.17584,0.5043189
613,2023-05-12 14:24:57.351000,0.52019334,-0.068382226,0.9744467
614,2023-05-12 14:24:57.393000,0.24422224,0.13554333,1.4592278
615,2023-05-12 14:24:57.396000,-0.18438779,0.14775445,1.8866167
616,2023-05-12 14:24:57.437000,-0.39808223,0.19904111,2.2444024
617,2023-05-12 14:24:57.440000,-0.6972545,0.22468445,2.5118256
618,2023-05-12 14:24:57.483000,-1.1979101,0.15141778,2.7487211
619,2023-05-12 14:24:57.484000,-1.6851335,0.10745778,2.889149
620,2023-05-12 14:24:57.486000,-2.0600145,0.17828223,3.008818
621,2023-05-12 14:24:57.528000,-2.493509,0.23689556,3.0588834
622,2023-05-12 14:24:57.529000,-2.8476312,0.1856089,3.1260445
623,2023-05-12 14:24:57.573000,-3.032019,-0.0012211112,3.2017534
624,2023-05-12 14:24:57.623000,-3.2103012,-0.17828223,3.2750201
625,2023-05-12 14:24:57.623000,-3.41789,-0.06960334,3.4557445
626,2023-05-12 14:24:57.660000,-3.6120467,0.23201112,3.5961723
627,2023-05-12 14:24:57.671000,-3.6718812,0.31382558,3.6230369
628,2023-05-12 14:24:57.673000,-3.5668657,0.11600556,3.6877558
629,2023-05-12 14:24:57.709000,-3.2896736,0.091583334,3.8281834
630,2023-05-12 14:24:57.763000,-2.8183246,0.30161446,4.0272245
631,2023-05-12 14:24:57.763000,-2.3201113,0.47745445,4.185969
632,2023-05-12 14:24:57.765000,-2.086879,0.54095227,4.405769
633,2023-05-12 14:24:57.812000,-2.2114322,0.67161113,4.6646447
634,2023-05-12 14:24:57.812000,-2.4507701,0.86576784,4.9113092
635,2023-05-12 14:24:57.847000,-2.6669068,0.73999333,5.0590634
636,2023-05-12 14:24:57.886000,-2.8610635,0.48966557,5.1274457
637,2023-05-12 14:24:57.886000,-2.8268723,0.46402225,5.162858
638,2023-05-12 14:24:57.891000,-2.524037,0.5030978,5.2312403
639,2023-05-12 14:24:57.947000,-2.1039746,0.4933289,5.2312403
640,2023-05-12 14:24:57.947000,-2.2468445,0.50798225,5.183617
641,2023-05-12 14:24:57.977000,-2.5277002,0.5104245,5.1591945
642,2023-05-12 14:24:57.979000,-1.8292245,0.6117767,5.038305
643,2023-05-12 14:24:57.980000,-0.78761667,0.59956557,4.724479
644,2023-05-12 14:24:57.980000,-0.92438114,0.7387723,4.195738
645,2023-05-12 14:24:58.024000,-1.2662922,0.4921078,3.789108
646,2023-05-12 14:24:58.072000,-0.9133912,0.23689556,3.4081213
647,2023-05-12 14:24:58.072000,-0.40174556,0.019537779,2.8928123
648,2023-05-12 14:24:58.122000,-0.56659555,-0.2820767,2.3665135
649,2023-05-12 14:24:58.129000,-1.1783723,-0.5372889,1.8866167
650,2023-05-12 14:24:58.155000,-1.0696933,-0.73633003,1.3578756
651,2023-05-12 14:24:58.162000,-0.27108666,-0.8095967,0.74976224
652,2023-05-12 14:24:58.208000,0.2515489,-0.7070234,0.009768889
653,2023-05-12 14:24:58.209000,0.30772,-0.5800278,-0.69114894
654,2023-05-12 14:24:58.250000,0.20636779,-0.47501224,-1.2809457
655,2023-05-12 14:24:58.252000,0.32725778,-0.43960002,-1.6985656
656,2023-05-12 14:24:58.291000,0.75831,-0.40296668,-2.042919
657,2023-05-12 14:24:58.293000,1.0684723,-0.4591378,-2.3506389
658,2023-05-12 14:24:58.341000,0.98910004,-0.6423045,-2.6156201
659,2023-05-12 14:24:58.352000,0.72778225,-0.73633003,-2.8610635
660,2023-05-12 14:24:58.391000,0.80227005,-0.63986224,-3.17611
661,2023-05-12 14:24:58.393000,1.1673822,-0.5592689,-3.4117846
662,2023-05-12 14:24:58.425000,1.680249,-0.6191034,-3.4215534
663,2023-05-12 14:24:58.429000,2.0685623,-0.62643003,-3.305548
664,2023-05-12 14:24:58.430000,2.3469756,-0.51653004,-3.4362068
665,2023-05-12 14:24:58.431000,2.6571379,-0.61299783,-3.6877558
666,2023-05-12 14:24:58.471000,2.8366413,-0.81448114,-3.768349
667,2023-05-12 14:24:58.473000,2.5020568,-0.9952056,-3.7805603
668,2023-05-12 14:24:58.474000,1.7425256,-1.12098,-3.7952135
669,2023-05-12 14:24:58.475000,1.2553023,-1.05504,-3.9478524
670,2023-05-12 14:24:58.516000,1.1344123,-0.9927634,-4.2042856
671,2023-05-12 14:24:58.517000,0.87920004,-1.0611455,-4.372799
672,2023-05-12 14:24:58.519000,0.2295689,-1.2528601,-4.488805
673,2023-05-12 14:24:58.561000,-0.40052447,-1.284609,-4.541312
674,2023-05-12 14:24:58.562000,-0.4591378,-0.81326,-4.592599
675,2023-05-12 14:24:58.563000,0.23933779,-0.33580557,-4.734248
676,2023-05-12 14:24:58.569000,1.1539501,-0.21247335,-4.7684393
677,2023-05-12 14:24:58.607000,1.7315357,-0.2845189,-4.693951
678,2023-05-12 14:24:58.609000,1.7767167,-0.32970002,-4.56085
679,2023-05-12 14:24:58.610000,1.7046711,-0.3162678,-4.378905
680,2023-05-12 14:24:58.610000,1.8878379,-0.15508112,-4.2226024
681,2023-05-12 14:24:58.654000,2.3335435,0.117226675,-4.152999
682,2023-05-12 14:24:58.656000,2.73651,0.14531223,-4.1236925
683,2023-05-12 14:24:58.657000,2.7401733,-0.1526389,-4.04432
684,2023-05-12 14:24:58.704000,2.4178002,-0.52752,-3.900229
685,2023-05-12 14:24:58.705000,2.1760201,-0.5678167,-3.680429
686,2023-05-12 14:24:58.706000,2.1662512,-0.20026223,-3.5302324
687,2023-05-12 14:24:58.743000,2.2676034,0.10135223,-3.4142268
688,2023-05-12 14:24:58.745000,2.317669,-0.05372889,-3.218849
689,2023-05-12 14:24:58.745000,1.614309,-0.42128336,-3.0295768
690,2023-05-12 14:24:58.788000,0.40296668,-0.30772,-2.73651
691,2023-05-12 14:24:58.789000,-0.22346334,0.2759711,-2.4703078
692,2023-05-12 14:24:58.790000,-0.012211111,0.7998278,-2.273709
693,2023-05-12 14:24:58.791000,0.40785113,0.94514006,-2.0587933
694,2023-05-12 14:24:58.835000,0.47501224,0.74976224,-1.8157923
695,2023-05-12 14:24:58.836000,0.14653334,0.5922389,-1.504409
696,2023-05-12 14:24:58.837000,0.14164889,0.6996967,-1.0880101
697,2023-05-12 14:24:58.878000,0.57148004,0.7021389,-0.63009334
698,2023-05-12 14:24:58.881000,0.9365923,0.35900667,-0.17584
699,2023-05-12 14:24:58.884000,0.8401245,0.028085556,0.25887558
700,2023-05-12 14:24:58.889000,0.2515489,-0.11966889,0.6984756
701,2023-05-12 14:24:58.922000,-0.37976557,-0.085477784,1.1344123
702,2023-05-12 14:24:58.926000,-0.47379112,-0.023201112,1.5129567
703,2023-05-12 14:24:58.968000,-0.08792,0.014653334,1.8280034
704,2023-05-12 14:24:58.970000,0.109900005,-0.007326667,2.1357234
705,2023-05-12 14:24:59.011000,-0.27475002,-0.025643334,2.4568756
706,2023-05-12 14:24:59.058000,-1.0342811,-0.0048844446,2.7755857
707,2023-05-12 14:24:59.059000,-1.6643745,-0.01099,3.0381246
708,2023-05-12 14:24:59.060000,-1.9965167,-0.05617111,3.2066379
709,2023-05-12 14:24:59.103000,-2.1857889,-0.16607112,3.2664723
710,2023-05-12 14:24:59.282000,-2.3005733,-0.2845189,3.2591457
711,2023-05-12 14:24:59.327000,-2.317669,-0.32237336,3.2444923
712,2023-05-12 14:24:59.330000,-2.3970413,-0.34435335,3.1871002
713,2023-05-12 14:24:59.331000,-2.6156201,-0.3724389,3.1272657
714,2023-05-12 14:24:59.335000,-2.8537369,-0.32970002,3.1016223
715,2023-05-12 14:24:59.371000,-2.8280935,-0.047623336,3.152909
716,2023-05-12 14:24:59.372000,-2.3274379,0.40663,3.2432714
717,2023-05-12 14:24:59.375000,-1.7058923,0.67283225,3.2713568
718,2023-05-12 14:24:59.375000,-1.4250367,0.7485411,3.2884524
719,2023-05-12 14:24:59.376000,-1.4567856,0.7973856,3.3885834
720,2023-05-12 14:24:59.470000,-1.526389,0.76075226,3.5168002
721,2023-05-12 14:24:59.507000,-1.7095556,0.65940005,3.690198
722,2023-05-12 14:24:59.508000,-1.9232501,0.64841,3.9173245
723,2023-05-12 14:24:59.551000,-2.0294867,0.77906895,4.030888
724,2023-05-12 14:24:59.601000,-2.0160546,0.69237006,4.0052447
725,2023-05-12 14:24:59.602000,-2.096648,0.43349445,4.087059
726,2023-05-12 14:24:59.608000,-2.3811667,0.46524334,4.3325024
727,2023-05-12 14:24:59.687000,-2.4996145,0.6117767,4.408211
728,2023-05-12 14:24:59.687000,-2.1357234,0.40296668,4.33006
729,2023-05-12 14:24:59.692000,-1.9427879,0.25277,4.459498
730,2023-05-12 14:24:59.734000,-2.1882312,0.32725778,4.5950413
731,2023-05-12 14:24:59.736000,-2.3469756,0.43227336,4.504679
732,2023-05-12 14:24:59.778000,-2.316448,0.35656446,4.283658
733,2023-05-12 14:24:59.781000,-2.2444024,0.26376,4.207949
734,2023-05-12 14:24:59.821000,-2.0355923,0.32237336,4.210391
735,2023-05-12 14:24:59.826000,-1.5740123,0.43227336,4.2384768
736,2023-05-12 14:24:59.872000,-1.3652023,0.49821335,3.964948
737,2023-05-12 14:24:59.875000,-1.4567856,0.33458444,3.4887147
738,2023-05-12 14:24:59.917000,-1.5373789,0.32237336,3.1944268
739,2023-05-12 14:24:59.956000,-1.3664234,0.44692668,3.0295768
740,2023-05-12 14:24:59.956000,-0.71923447,0.5287411,2.8732746
741,2023-05-12 14:24:59.960000,0.0024422223,0.5836911,2.5582278
742,2023-05-12 14:25:00.007000,0.17950334,0.57270116,2.1369445
743,2023-05-12 14:25:00.009000,-0.16485001,0.38220778,1.779159
744,2023-05-12 14:25:00.049000,-0.4371578,0.15874445,1.4250367
745,2023-05-12 14:25:00.054000,-0.08425667,-0.14287001,1.07702
746,2023-05-12 14:25:00.091000,0.4823389,-0.45181113,0.6423045
747,2023-05-12 14:25:00.095000,0.52996224,-0.63986224,0.08425667
748,2023-05-12 14:25:00.140000,0.20881,-0.8266923,-0.39075556
749,2023-05-12 14:25:00.142000,0.05372889,-0.8730945,-0.7949434
750,2023-05-12 14:25:00.186000,0.14287001,-0.8669889,-1.2540811
751,2023-05-12 14:25:00.189000,0.33580557,-0.9072856,-1.636289
752,2023-05-12 14:25:00.226000,0.8266923,-0.9268234,-1.7816012
753,2023-05-12 14:25:00.230000,1.5068512,-0.7534256,-1.8829534
754,2023-05-12 14:25:00.274000,1.7999178,-0.6874856,-2.1601458
755,2023-05-12 14:25:00.276000,1.3224634,-0.8205867,-2.59364
756,2023-05-12 14:25:00.317000,0.44082114,-0.9085067,-3.0222502
757,2023-05-12 14:25:00.323000,0.047623336,-0.88408446,-3.250598
758,2023-05-12 14:25:00.363000,0.45059,-0.75831,-3.3568347
759,2023-05-12 14:25:00.371000,1.4567856,-0.8169234,-3.5229056
760,2023-05-12 14:25:00.415000,2.6168413,-0.92193896,-3.5534334
761,2023-05-12 14:25:00.416000,3.0942957,-0.9268234,-3.482609
762,2023-05-12 14:25:00.455000,2.6962135,-1.0562612,-3.6267002
763,2023-05-12 14:25:00.457000,2.1027534,-1.3261267,-3.8709223
764,2023-05-12 14:25:00.499000,1.8109078,-1.4946401,-4.0601945
765,2023-05-12 14:25:00.503000,1.6680379,-1.5508112,-4.183527
766,2023-05-12 14:25:00.551000,1.2931567,-1.6069822,-4.2665625
767,2023-05-12 14:25:00.552000,0.7424356,-1.67048,-4.349598
768,2023-05-12 14:25:00.588000,0.37366003,-1.5825601,-4.441181
769,2023-05-12 14:25:00.595000,0.30772,-1.2394278,-4.522996
770,2023-05-12 14:25:00.638000,0.48356003,-0.89263225,-4.5767245
771,2023-05-12 14:25:00.646000,0.45059,-0.65451556,-4.6548758
772,2023-05-12 14:25:00.687000,0.08669889,-0.52019334,-4.7513437
773,2023-05-12 14:25:00.689000,-0.26742333,-0.3382478,-4.7818713
774,2023-05-12 14:25:00.726000,-0.21491556,-0.07570889,-4.6963935
775,2023-05-12 14:25:00.765000,0.30283555,0.25643334,-4.56085
776,2023-05-12 14:25:00.767000,1.0990001,0.5885756,-4.425307
777,2023-05-12 14:25:00.772000,1.9708734,0.8034911,-4.3862314
778,2023-05-12 14:25:00.817000,2.5850923,0.8169234,-4.3764625
779,2023-05-12 14:25:00.818000,2.6669068,0.69237006,-4.3190703
780,2023-05-12 14:25:00.863000,2.5460167,0.51775116,-4.305638
781,2023-05-12 14:25:00.873000,2.9575312,0.30649891,-4.1713157
782,2023-05-12 14:25:00.905000,3.6987457,-0.0061055557,-3.9942546
783,2023-05-12 14:25:00.915000,4.0321093,-0.26986557,-3.7964346
784,2023-05-12 14:25:00.955000,3.9258723,-0.41029334,-3.6120467
785,2023-05-12 14:25:00.956000,3.6731024,-0.5836911,-3.350729
786,2023-05-12 14:25:01.037000,3.3214223,-0.80104893,-3.0381246
787,2023-05-12 14:25:01.042000,2.6302733,-0.83890337,-2.6608012
788,2023-05-12 14:25:01.085000,1.7193245,-0.50554,-2.3030157
789,2023-05-12 14:25:01.105000,1.0196278,-0.19537778,-2.0209389
790,2023-05-12 14:25:01.129000,0.7619734,-0.13798556,-1.6546056
791,2023-05-12 14:25:01.130000,0.6581789,-0.19049335,-1.2357645
792,2023-05-12 14:25:01.175000,0.30405667,-0.16240779,-0.7485411
793,2023-05-12 14:25:01.222000,-0.05617111,0.08792,-0.15874445
794,2023-05-12 14:25:01.222000,-0.15996556,0.43960002,0.3834289
795,2023-05-12 14:25:01.228000,0.07570889,0.67283225,0.88896894
796,2023-05-12 14:25:01.264000,0.4908867,0.64841,1.3713078
797,2023-05-12 14:25:01.265000,0.59956557,0.45059,1.79137
798,2023-05-12 14:25:01.310000,0.023201112,0.45791668,2.1589246
799,2023-05-12 14:25:01.312000,-0.97078335,0.6838223,2.482519
800,2023-05-12 14:25:01.352000,-1.9098178,0.7656367,2.7206357
801,2023-05-12 14:25:01.355000,-2.3274379,0.7082445,2.9050233
802,2023-05-12 14:25:01.445000,-2.2273068,0.65451556,2.9734056
803,2023-05-12 14:25:01.445000,-2.0954268,0.56293225,2.977069
804,2023-05-12 14:25:01.446000,-2.1833467,0.47257003,3.0735369
805,2023-05-12 14:25:01.537000,-2.2724879,0.45181113,3.1993113
806,2023-05-12 14:25:01.537000,-2.2810357,0.38465002,3.2518191
807,2023-05-12 14:25:01.576000,-2.2908046,0.32725778,3.3458445
808,2023-05-12 14:25:01.622000,-2.31889,0.45791668,3.3849201
809,2023-05-12 14:25:01.622000,-2.3652923,0.7485411,3.3898046
810,2023-05-12 14:25:01.624000,-2.3384278,0.9414767,3.3983524
811,2023-05-12 14:25:01.675000,-1.9977379,0.9512456,3.43987
812,2023-05-12 14:25:01.675000,-1.5544745,0.7436567,3.4581869
813,2023-05-12 14:25:01.718000,-1.27484,0.7265611,3.548549
814,2023-05-12 14:25:01.760000,-1.28583,1.2443123,3.58274
815,2023-05-12 14:25:01.760000,-1.4250367,1.7071134,3.5216846
816,2023-05-12 14:25:01.762000,-1.6790278,1.6643745,3.5070312
817,2023-05-12 14:25:01.804000,-1.9464512,1.3810767,3.5363379
818,2023-05-12 14:25:01.805000,-2.1186278,1.32979,3.6669967
819,2023-05-12 14:25:01.848000,-2.1760201,1.570349,3.7598011
820,2023-05-12 14:25:01.891000,-2.3103423,1.7498523,3.7805603
821,2023-05-12 14:25:01.892000,-2.4983935,1.50563,3.8355103
822,2023-05-12 14:25:01.893000,-2.578987,1.2394278,4.0711846
823,2023-05-12 14:25:01.944000,-2.570439,1.2919356,4.315407
824,2023-05-12 14:25:01.945000,-2.4104733,1.1392968,4.316628
825,2023-05-12 14:25:02.027000,-2.514268,1.1124322,4.403327
826,2023-05-12 14:25:02.028000,-2.5643334,1.0696933,4.515669
827,2023-05-12 14:25:02.031000,-2.3604078,1.0281756,4.404548
828,2023-05-12 14:25:02.075000,-2.1723568,0.9952056,4.23115
829,2023-05-12 14:25:02.076000,-2.1906734,0.96223557,4.0992703
830,2023-05-12 14:25:02.536000,-2.119849,0.8645467,3.9759378
831,2023-05-12 14:25:02.536000,-1.4421322,0.9292656,3.844058
832,2023-05-12 14:25:02.536000,-0.5836911,1.07702,3.515579
833,2023-05-12 14:25:02.537000,-0.20026223,1.1429601,3.1052856
834,2023-05-12 14:25:02.537000,-0.34557447,0.9683412,2.6644645
835,2023-05-12 14:25:02.537000,-0.20026223,0.71557117,2.3140056
836,2023-05-12 14:25:02.538000,0.61666113,0.59590226,2.11008
837,2023-05-12 14:25:02.539000,1.2565234,0.5836911,1.7486312
838,2023-05-12 14:25:02.539000,1.0721356,0.3492378,1.2015734
839,2023-05-12 14:25:02.539000,0.32115224,-0.10135223,0.62765115
840,2023-05-12 14:25:02.540000,-0.41762,-0.52019334,0.123332225
841,2023-05-12 14:25:02.540000,-0.60445005,-0.8230289,-0.3284789
842,2023-05-12 14:25:02.540000,-0.15874445,-1.020849,-0.65451556
843,2023-05-12 14:25:02.540000,0.5006556,-1.0880101,-0.96589893
844,2023-05-12 14:25:02.541000,0.8645467,-1.07702,-1.2369856
845,2023-05-12 14:25:02.541000,0.6447467,-1.1429601,-1.5398211
846,2023-05-12 14:25:02.541000,0.28818223,-1.2272167,-1.7999178
847,2023-05-12 14:25:02.542000,0.23567446,-1.1417389,-1.9403456
848,2023-05-12 14:25:02.569000,0.67283225,-1.06603,-2.1601458
849,2023-05-12 14:25:02.615000,0.98910004,-1.0831256,-2.4019256
850,2023-05-12 14:25:02.616000,0.75831,-1.1002212,-2.688887
851,2023-05-12 14:25:02.616000,0.29306668,-1.1173167,-2.9392145
852,2023-05-12 14:25:02.660000,0.18072446,-1.1258645,-3.0930746
853,2023-05-12 14:25:02.660000,0.5104245,-1.1124322,-3.1871002
854,2023-05-12 14:25:02.703000,1.2638501,-1.020849,-3.2933369
855,2023-05-12 14:25:02.748000,1.7681689,-0.9854367,-3.3751512
856,2023-05-12 14:25:02.749000,1.9488934,-1.0684723,-3.4166691
857,2023-05-12 14:25:02.749000,2.261498,-1.0782411,-3.4362068
858,2023-05-12 14:25:02.791000,2.524037,-1.0953367,-3.4887147
859,2023-05-12 14:25:02.837000,2.3909357,-1.2528601,-3.4972625
860,2023-05-12 14:25:02.838000,1.9293556,-1.4775445,-3.5265691
861,2023-05-12 14:25:02.839000,1.6875756,-1.6118667,-3.5607603
862,2023-05-12 14:25:02.839000,1.900049,-1.5801178,-3.6279213
863,2023-05-12 14:25:02.842000,2.122291,-1.5410423,-3.789108
864,2023-05-12 14:25:02.883000,1.90127,-1.5727912,-3.9808223
865,2023-05-12 14:25:02.883000,1.1380756,-1.6570479,-4.19818
866,2023-05-12 14:25:02.886000,0.20026223,-1.7290934,-4.4961314
867,2023-05-12 14:25:02.931000,-0.42861003,-1.5911078,-4.7965245
868,2023-05-12 14:25:02.932000,-0.5140878,-1.2430911,-4.9638166
869,2023-05-12 14:25:02.932000,-0.058613338,-0.7326667,-4.913751
870,2023-05-12 14:25:02.970000,0.5678167,-0.44326335,-4.9161935
871,2023-05-12 14:25:02.973000,1.2687345,-0.31993112,-4.9711437
872,2023-05-12 14:25:02.973000,1.9195868,-0.26864445,-5.041968
873,2023-05-12 14:25:02.974000,2.261498,-0.27108666,-5.095697
874,2023-05-12 14:25:03.015000,2.2859201,-0.25887558,-5.029757
875,2023-05-12 14:25:03.016000,2.2566135,-0.25521225,-4.845369
876,2023-05-12 14:25:03.019000,2.4580967,-0.37488112,-4.580388
877,2023-05-12 14:25:03.020000,2.7426157,-0.62643003,-4.2384768
878,2023-05-12 14:25:03.072000,2.9160135,-0.70336,-3.7598011
879,2023-05-12 14:25:03.072000,2.6925502,-0.7937223,-3.317759
880,2023-05-12 14:25:03.072000,2.0172756,-0.7778478,-2.95631
881,2023-05-12 14:25:03.105000,1.3725289,-0.42861003,-2.6205046
882,2023-05-12 14:25:03.152000,1.0477134,-0.12089001,-2.2859201
883,2023-05-12 14:25:03.153000,0.9500245,0.22224224,-1.9379034
884,2023-05-12 14:25:03.154000,1.0135223,0.3309211,-1.6436156
885,2023-05-12 14:25:03.197000,0.88408446,0.15386,-1.4189311
886,2023-05-12 14:25:03.205000,0.47501224,0.16607112,-1.2186689
887,2023-05-12 14:25:03.205000,0.06349778,0.38465002,-1.0452712
888,2023-05-12 14:25:03.206000,-0.10501556,0.47501224,-0.8767578
889,2023-05-12 14:25:03.255000,0.15752333,0.29673,-0.6447467
890,2023-05-12 14:25:03.256000,0.4689067,0.078151114,-0.37732336
891,2023-05-12 14:25:03.256000,0.4933289,0.09280445,-0.11356334
892,2023-05-12 14:25:03.292000,0.3834289,0.15630223,0.12577444
893,2023-05-12 14:25:03.292000,0.28329778,0.07570889,0.40540892
894,2023-05-12 14:25:03.293000,0.16973445,0.03052778,0.7888378
895,2023-05-12 14:25:03.332000,0.12211112,0.039075557,1.2687345
896,2023-05-12 14:25:03.337000,-0.07204556,0.091583334,1.8878379
897,2023-05-12 14:25:03.338000,-0.18805112,0.29673,2.4727502
898,2023-05-12 14:25:03.338000,-0.07570889,0.46402225,2.8842645
899,2023-05-12 14:25:03.338000,-0.10745778,0.4566956,3.1016223
900,2023-05-12 14:25:03.379000,-0.89019006,0.45425335,3.1370347
901,2023-05-12 14:25:03.380000,-1.9720945,0.4273889,3.19809
902,2023-05-12 14:25:03.380000,-2.8219879,0.23445335,3.3421812
903,2023-05-12 14:25:03.422000,-3.1932056,-0.012211111,3.537559
904,2023-05-12 14:25:03.425000,-3.1333714,-0.109900005,3.8074245
905,2023-05-12 14:25:03.425000,-2.713309,-0.05006556,4.0369935
906,2023-05-12 14:25:03.425000,-2.2566135,0.09646778,4.076069
907,2023-05-12 14:25:03.468000,-1.8646368,0.16485001,3.9832647
908,2023-05-12 14:25:03.468000,-1.3847401,0.20881,3.922209
909,2023-05-12 14:25:03.470000,-0.81936556,0.46402225,3.964948
910,2023-05-12 14:25:03.515000,-0.48600224,0.9634567,3.9905913
911,2023-05-12 14:25:03.516000,-0.6227667,1.2272167,3.9576213
912,2023-05-12 14:25:03.518000,-1.1038845,1.0257334,3.8831334
913,2023-05-12 14:25:03.519000,-1.4128256,0.5885756,3.85749
914,2023-05-12 14:25:03.555000,-1.4909767,0.4261678,3.9295356
915,2023-05-12 14:25:03.561000,-1.2333223,0.6777167,3.888018
916,2023-05-12 14:25:03.561000,-0.84623003,0.71557117,3.723168
917,2023-05-12 14:25:03.562000,-0.71557117,0.51775116,3.778118
918,2023-05-12 14:25:03.608000,-0.75953114,0.78761667,3.9637268
919,2023-05-12 14:25:03.611000,-0.38831335,1.2540811,3.8403945
920,2023-05-12 14:25:03.613000,0.42861003,1.1026634,3.4435334
921,2023-05-12 14:25:03.652000,0.39075556,0.90362227,3.3531713
922,2023-05-12 14:25:03.692000,-0.33214223,1.0330601,3.427659
923,2023-05-12 14:25:03.693000,-0.6581789,1.3151367,3.3165379
924,2023-05-12 14:25:03.695000,-0.3724389,1.3493278,3.0478935
925,2023-05-12 14:25:03.740000,-0.21980001,1.3664234,2.8403046
926,2023-05-12 14:25:03.740000,-0.62154555,1.4262578,2.6705701
927,2023-05-12 14:25:03.787000,-1.0843467,1.3481067,2.5057201
928,2023-05-12 14:25:03.825000,-1.2211112,1.2772822,2.2981312
929,2023-05-12 14:25:03.829000,-1.0159645,1.2882723,2.1064167
930,2023-05-12 14:25:03.838000,-0.7534256,1.4885345,2.096648
931,2023-05-12 14:25:03.873000,-0.5641534,1.7608423,2.1430502
932,2023-05-12 14:25:03.873000,-0.56049,1.8182346,2.0905423
933,2023-05-12 14:25:03.922000,-0.63986224,1.7413045,2.0270445
934,2023-05-12 14:25:03.962000,-0.66062117,1.8389934,2.0722256
935,2023-05-12 14:25:03.967000,-0.5836911,2.00018,2.1210701
936,2023-05-12 14:25:03.971000,-0.2283478,2.0490246,2.067341
937,2023-05-12 14:25:04.013000,0.32481557,2.09909,2.0050645
938,2023-05-12 14:25:04.014000,1.0440501,2.3311012,1.8707423
939,2023-05-12 14:25:04.053000,1.5788968,2.559449,1.7498523
940,2023-05-12 14:25:04.099000,1.6240778,2.5997458,1.6082034
941,2023-05-12 14:25:04.099000,1.3188001,2.5509012,1.3627601
942,2023-05-12 14:25:04.104000,0.9720045,2.3884935,1.1722667
943,2023-05-12 14:25:04.144000,1.1637189,2.4190211,1.06603
944,2023-05-12 14:25:04.144000,1.5752333,2.633937,0.94880337
945,2023-05-12 14:25:04.193000,1.5520322,2.5838711,0.85722005
946,2023-05-12 14:25:04.231000,1.2589656,2.4556546,0.7485411
947,2023-05-12 14:25:04.232000,1.1527289,2.1699145,0.6618422
948,2023-05-12 14:25:04.235000,1.4152678,1.801139,0.6471889
949,2023-05-12 14:25:04.277000,1.6082034,1.7168823,0.5885756
950,2023-05-12 14:25:04.278000,1.1808145,1.6582689,0.42861003
951,2023-05-12 14:25:04.323000,0.29673,1.405499,0.2503278
952,2023-05-12 14:25:04.366000,-0.38709223,1.119759,0.1526389
953,2023-05-12 14:25:04.366000,-0.53851,0.82547116,0.13310112
954,2023-05-12 14:25:04.369000,-0.33336335,0.5360678,0.16607112
955,2023-05-12 14:25:04.459000,0.008547778,0.35900667,0.21369445
956,2023-05-12 14:25:04.459000,0.3162678,0.30649891,0.24910668
957,2023-05-12 14:25:04.502000,0.45791668,0.28085557,0.27230778
958,2023-05-12 14:25:04.555000,0.4591378,0.32481557,0.35534334
959,2023-05-12 14:25:04.557000,0.5922389,0.15996556,0.4383789
960,2023-05-12 14:25:04.558000,1.3188001,0.24666445,0.46035892
961,2023-05-12 14:25:04.592000,1.5422634,0.43105224,0.3834289
962,2023-05-12 14:25:04.594000,1.4799867,0.52752,0.35534334
963,2023-05-12 14:25:04.636000,1.0977789,0.5128667,0.26620224
964,2023-05-12 14:25:04.639000,0.66062117,0.26986557,0.17584
965,2023-05-12 14:25:04.683000,0.46035892,0.12577444,0.11844778
966,2023-05-12 14:25:04.688000,0.48478112,0.19537778,0.064718895
967,2023-05-12 14:25:04.727000,0.47257003,0.24178001,0.04029667
968,2023-05-12 14:25:04.734000,0.24300112,0.17950334,0.029306669
969,2023-05-12 14:25:04.771000,-0.11356334,0.054950003,0.008547778
970,2023-05-12 14:25:04.818000,-0.31016225,-0.068382226,0.008547778
971,2023-05-12 14:25:04.821000,-0.20270446,-0.07326667,0.02198
972,2023-05-12 14:25:04.866000,0.11356334,0.015874445,0.034191113
973,2023-05-12 14:25:04.870000,0.32359445,0.12211112,0.064718895
974,2023-05-12 14:25:04.908000,0.24788557,0.028085556,0.08059334
975,2023-05-12 14:25:04.909000,0.07448778,-0.064718895,0.06960334
976,2023-05-12 14:25:04.954000,0.09646778,0.04151778,0.05250778
977,2023-05-12 14:25:05.001000,0.3052778,0.14897557,0.064718895
978,2023-05-12 14:25:05.001000,0.50798225,0.12699556,0.09646778
979,2023-05-12 14:25:05.041000,0.5690378,0.07570889,0.123332225
980,2023-05-12 14:25:05.043000,0.4689067,0.03052778,0.13554333
981,2023-05-12 14:25:05.050000,0.37732336,-0.015874445,0.14409111
982,2023-05-12 14:25:05.090000,0.40174556,-0.04396,0.18805112
983,2023-05-12 14:25:05.132000,0.42128336,-0.08425667,0.21613668
984,2023-05-12 14:25:05.133000,0.3370267,-0.17584,0.21613668
985,2023-05-12 14:25:05.135000,0.2503278,-0.19782001,0.19293556
986,2023-05-12 14:25:05.179000,0.28940335,-0.14042778,0.16729222
987,2023-05-12 14:25:05.179000,0.42861003,-0.07204556,0.15996556
988,2023-05-12 14:25:05.225000,0.45791668,-0.047623336,0.12577444
989,2023-05-12 14:25:05.269000,0.26009667,-0.109900005,0.064718895
990,2023-05-12 14:25:05.269000,0.046402223,-0.13554333,0.0024422223
991,2023-05-12 14:25:05.312000,-0.0012211112,-0.08303556,-0.03052778
992,2023-05-12 14:25:05.318000,0.081814446,-0.039075557,-0.045181114
993,2023-05-12 14:25:05.356000,0.14653334,-0.036633335,-0.03297
994,2023-05-12 14:25:05.359000,0.102573335,-0.06105556,-0.023201112
995,2023-05-12 14:25:05.360000,0.0061055557,-0.06349778,-0.017095556
996,2023-05-12 14:25:05.416000,0.019537779,-0.03174889,0.0012211112
997,2023-05-12 14:25:05.417000,0.06594,-0.03052778,0.007326667
998,2023-05-12 14:25:05.418000,0.07570889,-0.034191113,-0.0012211112
999,2023-05-12 14:25:05.452000,0.10135223,-0.015874445,0.0036633336
1000,2023-05-12 14:25:05.453000,0.13798556,0.0061055557,0.01099
1001,2023-05-12 14:25:05.453000,0.12211112,0.009768889,-0.0012211112
1002,2023-05-12 14:25:05.454000,0.08792,-0.026864445,-0.014653334
1003,2023-05-12 14:25:05.492000,0.081814446,-0.04029667,-0.012211111
1004,2023-05-12 14:25:05.493000,0.098910004,-0.0036633336,-0.015874445
1005,2023-05-12 14:25:05.494000,0.10135223,0.037854444,-0.019537779
1006,2023-05-12 14:25:05.540000,0.054950003,0.037854444,-0.018316668
1007,2023-05-12 14:25:05.540000,-0.029306669,-0.01099,-0.014653334
1008,2023-05-12 14:25:05.541000,-0.051286668,-0.058613338,-0.012211111
1009,2023-05-12 14:25:05.542000,0.018316668,-0.046402223,-0.01099
1010,2023-05-12 14:25:05.581000,0.106236674,0.0048844446,-0.0024422223
1011,2023-05-12 14:25:05.583000,0.13554333,0.023201112,-0.012211111
1012,2023-05-12 14:25:05.585000,0.10379445,-0.03052778,-0.017095556
1013,2023-05-12 14:25:05.586000,0.081814446,-0.058613338,-0.017095556
1014,2023-05-12 14:25:05.626000,0.09402556,-0.024422223,-0.015874445
1015,2023-05-12 14:25:05.627000,0.081814446,0.009768889,-0.019537779
1016,2023-05-12 14:25:05.628000,0.018316668,-0.0012211112,-0.02075889
1017,2023-05-12 14:25:05.671000,-0.013432222,-0.037854444,-0.007326667
1018,2023-05-12 14:25:05.672000,0.02198,-0.054950003,0.0024422223
1019,2023-05-12 14:25:05.673000,0.08303556,-0.051286668,0.007326667
1020,2023-05-12 14:25:05.673000,0.102573335,-0.059834447,0.0048844446
