,p_gyroscope_time,p_gyroscope_x,p_gyroscope_y,p_gyroscope_z
0,2023-03-27 15:00:47.286,0.09385365,-0.39518684,-2.1235592
1,2023-03-27 15:00:47.304,-0.02172754,-0.8431305,-1.8806789
2,2023-03-27 15:00:47.323,-0.03131492,-1.3113143,-1.450312
3,2023-03-27 15:00:47.342,0.14232318,-1.6308936,-0.9469746
4,2023-03-27 15:00:47.364,0.4645657,-1.6154473,-0.44416973
5,2023-03-27 15:00:47.380,0.81077665,-1.2037226,-0.10381773
6,2023-03-27 15:00:47.399,1.0025243,-0.63167554,-0.028183958
7,2023-03-27 15:00:47.419,0.92582524,-0.1549697,-0.16347253
8,2023-03-27 15:00:47.441,0.63287747,0.17686018,-0.3690686
9,2023-03-27 15:00:47.462,0.24565384,0.33984563,-0.43032128
10,2023-03-27 15:00:47.485,-0.09789395,0.38352147,-0.27372742
11,2023-03-27 15:00:47.495,-0.35036162,0.40269625,-0.03404291
12,2023-03-27 15:00:47.520,-0.52826077,0.39151096,0.16462891
13,2023-03-27 15:00:47.538,-0.6145472,0.3824562,0.27435115
14,2023-03-27 15:00:47.560,-0.55968606,0.3009635,0.2668943
15,2023-03-27 15:00:47.584,-0.32159948,0.057550564,0.13746467
16,2023-03-27 15:00:47.599,-0.014803321,-0.21462451,-0.09955667
17,2023-03-27 15:00:47.625,0.17694429,-0.41542685,-0.3823844
18,2023-03-27 15:00:47.636,0.18653166,-0.5741512,-0.6183405
19,2023-03-27 15:00:47.655,0.051243078,-0.72808194,-0.75043327
20,2023-03-27 15:00:47.672,-0.14423296,-0.82715154,-0.7706733
21,2023-03-27 15:00:47.692,-0.31147948,-0.84366316,-0.66681
22,2023-03-27 15:00:47.710,-0.40522274,-0.77388835,-0.4638771
23,2023-03-27 15:00:47.731,-0.42812595,-0.639665,-0.23644316
24,2023-03-27 15:00:47.751,-0.4291912,-0.44845006,-0.04149976
25,2023-03-27 15:00:47.773,-0.4654102,-0.18905817,0.086864606
26,2023-03-27 15:00:47.792,-0.535185,0.057550564,0.152911
27,2023-03-27 15:00:47.810,-0.5943072,0.15555489,0.19818474
28,2023-03-27 15:00:47.834,-0.5969703,0.089508496,0.21469635
29,2023-03-27 15:00:47.852,-0.5170755,-0.08199908,0.18273841
30,2023-03-27 15:00:47.875,-0.34610057,-0.24977824,0.14492153
31,2023-03-27 15:00:47.893,0.032600947,-0.02926849,0.23120794
32,2023-03-27 15:00:47.913,0.6722923,0.798442,0.45118505
33,2023-03-27 15:00:47.936,1.0312864,1.4035121,0.58487576
34,2023-03-27 15:00:47.954,0.92476,1.4312091,0.539602
35,2023-03-27 15:00:47.971,0.6429975,1.2953879,0.48101246
36,2023-03-27 15:00:47.988,0.53966683,1.4844723,0.59126735
37,2023-03-27 15:00:48.013,0.83794093,2.3020627,0.9284235
38,2023-03-27 15:00:48.029,1.3865521,3.4339063,1.302864
39,2023-03-27 15:00:48.053,1.7892221,3.9532228,1.2890155
40,2023-03-27 15:00:48.071,1.939957,3.3625336,0.70897907
41,2023-03-27 15:00:48.092,1.6794999,1.2996489,-0.07718612
42,2023-03-27 15:00:48.112,0.99080634,-1.450864,-0.6582879
43,2023-03-27 15:00:48.129,0.36815923,-3.2325187,-0.68278897
44,2023-03-27 15:00:48.151,0.22647907,-4.1422544,0.16303101
45,2023-03-27 15:00:48.168,0.31383076,-3.8668838,0.40005237
46,2023-03-27 15:00:48.192,0.62382275,-2.3520777,0.09219093
47,2023-03-27 15:00:48.209,0.9716316,-0.39785,-0.15548305
48,2023-03-27 15:00:48.229,1.0398085,1.1755456,-0.2636074
49,2023-03-27 15:00:48.252,0.6792165,1.7465273,-0.060141888
50,2023-03-27 15:00:48.271,-0.15062454,0.8362589,0.720697
51,2023-03-27 15:00:48.292,-1.1088299,-0.5885323,1.2570577
52,2023-03-27 15:00:48.305,-1.7320096,-0.8559137,0.8139076
53,2023-03-27 15:00:48.328,-1.7288138,0.7489072,0.13693203
54,2023-03-27 15:00:48.348,-1.2877944,2.4991367,-0.10861142
55,2023-03-27 15:00:48.370,-1.1727457,2.0794225,-0.053750303
56,2023-03-27 15:00:48.387,-1.2803375,0.3457046,0.18273841
57,2023-03-27 15:00:48.408,-1.3234807,-1.2292889,0.53906935
58,2023-03-27 15:00:48.426,-1.1386573,-1.9334288,0.9188361
59,2023-03-27 15:00:48.446,-0.849438,-1.7320938,1.0354826
60,2023-03-27 15:00:48.469,-0.67686516,-1.2676384,0.777156
61,2023-03-27 15:00:48.482,-0.52133656,-0.9022527,0.3712902
62,2023-03-27 15:00:48.509,-0.32373002,-0.639665,0.03573191
63,2023-03-27 15:00:48.535,-0.1367761,-0.5533786,-0.13098198
64,2023-03-27 15:00:48.548,-0.028651759,-0.6029134,-0.28491268
65,2023-03-27 15:00:48.572,0.04804728,-0.5198228,-0.43831077
66,2023-03-27 15:00:48.586,0.15830214,-0.18426448,-0.44150656
67,2023-03-27 15:00:48.608,0.27228546,0.08737797,-0.3248601
68,2023-03-27 15:00:48.627,0.21742433,-0.098510675,-0.67799526
69,2023-03-27 15:00:48.646,0.13113791,-0.24125612,-1.476411
70,2023-03-27 15:00:48.659,0.36709398,-0.20290661,-2.0138369
71,2023-03-27 15:00:48.685,0.7750903,-0.60930496,-1.9595084
72,2023-03-27 15:00:48.705,1.0648422,-1.4732345,-1.3166213
73,2023-03-27 15:00:48.724,1.38815,-1.9536687,-0.23857369
74,2023-03-27 15:00:48.744,1.6906852,-1.630361,0.66104215
75,2023-03-27 15:00:48.759,1.6608577,-0.6428608,0.94227195
76,2023-03-27 15:00:48.783,1.196935,0.49803743,0.60191995
77,2023-03-27 15:00:48.797,0.449652,1.5142996,-0.109144054
78,2023-03-27 15:00:48.822,-0.3333174,2.182753,-0.7429764
79,2023-03-27 15:00:48.839,-0.94105077,2.1848836,-0.8345891
80,2023-03-27 15:00:48.861,-1.4118977,1.6682304,-0.34510013
81,2023-03-27 15:00:48.884,-1.7479886,0.73399353,0.26795956
82,2023-03-27 15:00:48.902,-1.896593,-0.3003783,0.5832778
83,2023-03-27 15:00:48.921,-1.8182961,-1.0876088,0.51243776
84,2023-03-27 15:00:48.936,-1.4529103,-1.6138494,0.14225836
85,2023-03-27 15:00:48.961,-0.8872549,-1.8375549,-0.4154076
86,2023-03-27 15:00:48.977,-0.30348998,-1.7411485,-1.033261
87,2023-03-27 15:00:49.001,0.1540411,-1.5850873,-1.5818721
88,2023-03-27 15:00:49.020,0.3788119,-1.505725,-1.9126368
89,2023-03-27 15:00:49.040,0.24778436,-1.4929419,-1.8822768
90,2023-03-27 15:00:49.059,-0.1895067,-1.5126493,-1.4614973
91,2023-03-27 15:00:49.083,-0.7455747,-1.5121167,-0.795707
92,2023-03-27 15:00:49.099,-1.2089647,-1.5147798,-0.110209316
93,2023-03-27 15:00:49.114,-1.4118977,-1.4529945,0.3973892
94,2023-03-27 15:00:49.146,-1.3320028,-0.9917349,0.6594443
95,2023-03-27 15:00:49.156,-1.0300003,-0.057497997,0.6621074
96,2023-03-27 15:00:49.177,-0.5559576,1.1499792,0.47302297
97,2023-03-27 15:00:49.198,0.021948304,2.4080565,0.17528155
98,2023-03-27 15:00:49.218,0.33087498,3.0030067,0.009100299
99,2023-03-27 15:00:49.241,0.35004976,2.8858275,0.13107309
100,2023-03-27 15:00:49.256,0.30956972,2.351065,0.39898708
101,2023-03-27 15:00:49.277,0.3591045,1.5627692,0.6669011
102,2023-03-27 15:00:49.295,0.46882674,0.67327344,0.853855
103,2023-03-27 15:00:49.316,0.5535153,-0.07986855,0.82775605
104,2023-03-27 15:00:49.333,0.51197,-0.4425911,0.6328126
105,2023-03-27 15:00:49.357,0.413433,-0.3184878,0.42987975
106,2023-03-27 15:00:49.378,0.4880015,0.3590204,0.40218288
107,2023-03-27 15:00:49.394,0.8315493,1.4967228,0.73081696
108,2023-03-27 15:00:49.415,1.303994,2.7713118,1.2554597
109,2023-03-27 15:00:49.430,1.7743083,4.0229974,1.5958117
110,2023-03-27 15:00:49.455,1.9831002,4.659493,1.3907483
111,2023-03-27 15:00:49.470,1.5639186,3.738572,0.61576843
112,2023-03-27 15:00:49.495,0.677086,1.2000467,-0.10648089
113,2023-03-27 15:00:49.515,-0.06646865,-1.6820264,-0.54217404
114,2023-03-27 15:00:49.534,-0.114938185,-3.1696682,-0.62632996
115,2023-03-27 15:00:49.554,0.588669,-3.0492933,-0.29077163
116,2023-03-27 15:00:49.572,1.6597924,-1.898275,0.26156798
117,2023-03-27 15:00:49.593,2.5157325,-0.7248862,0.74413276
118,2023-03-27 15:00:49.608,2.3516817,-0.12514229,0.5151009
119,2023-03-27 15:00:49.633,1.3540615,-0.17414446,0.11828991
120,2023-03-27 15:00:49.650,-0.2901742,-0.46283114,0.0037739775
121,2023-03-27 15:00:49.673,-1.7437276,-0.063889585,-0.061207153
122,2023-03-27 15:00:49.692,-2.5671768,0.46927527,0.16569418
123,2023-03-27 15:00:49.712,-2.8952785,1.0876613,0.5262862
124,2023-03-27 15:00:49.731,-2.5922105,2.1353488,0.6530527
125,2023-03-27 15:00:49.747,-2.068633,2.1071193,0.8059181
126,2023-03-27 15:00:49.770,-1.5530452,0.6274671,1.3321588
127,2023-03-27 15:00:49.787,-0.8430464,-0.6796124,1.8658563
128,2023-03-27 15:00:49.812,-0.055816002,-0.63540393,1.9729153
129,2023-03-27 15:00:49.829,0.4118351,0.09376956,1.6506728
130,2023-03-27 15:00:49.850,0.5796143,0.7968441,0.8330824
131,2023-03-27 15:00:49.869,0.46083724,1.3912616,-0.4319192
132,2023-03-27 15:00:49.886,-0.029717024,1.5542471,-1.7624345
133,2023-03-27 15:00:49.910,-0.46274704,0.963558,-2.8181117
134,2023-03-27 15:00:49.924,-0.48405233,-0.13313179,-3.2554026
135,2023-03-27 15:00:49.949,-0.21720357,-1.378426,-2.9187791
136,2023-03-27 15:00:49.964,0.13699687,-2.4969537,-2.0186305
137,2023-03-27 15:00:49.987,0.56097215,-3.247965,-0.8574923
138,2023-03-27 15:00:50.009,1.0296885,-3.3331861,0.22215319
139,2023-03-27 15:00:50.028,1.3609858,-2.6450255,0.7696991
140,2023-03-27 15:00:50.052,1.3029288,-1.5984031,0.628019
141,2023-03-27 15:00:50.066,0.8342125,-0.4740164,0.065026686
142,2023-03-27 15:00:50.086,0.212098,0.5518333,-0.491574
143,2023-03-27 15:00:50.101,-0.3120121,1.1414571,-0.6742669
144,2023-03-27 15:00:50.125,-0.67420197,1.2261456,-0.4058202
145,2023-03-27 15:00:50.144,-0.87713486,1.0940528,0.10231094
146,2023-03-27 15:00:50.164,-0.9458444,0.9486443,0.55025464
147,2023-03-27 15:00:50.186,-0.8398506,0.74464613,0.7590465
148,2023-03-27 15:00:50.201,-0.5287934,0.38405412,0.70418537
149,2023-03-27 15:00:50.224,-0.121862404,-0.0889233,0.40697658
150,2023-03-27 15:00:50.241,0.1987822,-0.46815744,-0.045228187
151,2023-03-27 15:00:50.264,0.340995,-0.6593724,-0.5080856
152,2023-03-27 15:00:50.279,0.27761176,-0.72328824,-0.8404481
153,2023-03-27 15:00:50.303,0.06509151,-0.7541809,-0.9544314
154,2023-03-27 15:00:50.325,-0.18684353,-0.77548623,-0.8548292
155,2023-03-27 15:00:50.343,-0.38817853,-0.7536483,-0.61301416
156,2023-03-27 15:00:50.364,-0.49150917,-0.6098376,-0.32858855
157,2023-03-27 15:00:50.379,-0.5005639,-0.31049833,-0.11340511
158,2023-03-27 15:00:50.401,-0.48831338,0.066605315,-0.04789135
159,2023-03-27 15:00:50.417,-0.51174915,0.38671726,-0.10594826
160,2023-03-27 15:00:50.441,-0.5634145,0.4996353,-0.17305993
161,2023-03-27 15:00:50.459,-0.6161451,0.3606183,-0.17359255
162,2023-03-27 15:00:50.482,-0.6619514,0.055420034,-0.13684092
163,2023-03-27 15:00:50.502,-0.68325675,-0.2556372,-0.13364513
164,2023-03-27 15:00:50.520,-0.6166777,-0.37707734,-0.2023547
165,2023-03-27 15:00:50.540,-0.36580795,-0.19012342,-0.3232622
166,2023-03-27 15:00:50.557,0.14498635,0.25089607,-0.43990865
167,2023-03-27 15:00:50.581,0.6051806,0.4666121,-0.41700548
168,2023-03-27 15:00:50.595,0.7223597,0.15129383,-0.24017158
169,2023-03-27 15:00:50.619,0.5354058,-0.5171596,-0.059609257
170,2023-03-27 15:00:50.639,0.24458857,-1.1270236,0.05011298
171,2023-03-27 15:00:50.659,0.06296098,-1.3485986,0.063961424
172,2023-03-27 15:00:50.679,0.095984176,-1.114773,-0.0026176092
173,2023-03-27 15:00:50.692,0.30584127,-0.5533786,-0.04842398
174,2023-03-27 15:00:50.715,0.5593743,0.07193164,0.012828724
175,2023-03-27 15:00:50.731,0.7330124,0.54064804,0.15876995
176,2023-03-27 15:00:50.749,0.78840613,0.84478104,0.3446586
177,2023-03-27 15:00:50.769,0.75431764,1.108434,0.5262862
178,2023-03-27 15:00:50.789,0.72289234,1.483407,0.7052506
179,2023-03-27 15:00:50.810,0.7931998,2.0740962,0.93854356
180,2023-03-27 15:00:50.831,0.98707795,2.780899,1.2235018
181,2023-03-27 15:00:50.856,1.1053222,3.1878302,1.3838241
182,2023-03-27 15:00:50.871,0.96204424,2.7318969,1.1995333
183,2023-03-27 15:00:50.894,0.6131701,1.1691539,0.6349432
184,2023-03-27 15:00:50.913,0.27707914,-0.46975535,-0.049489245
185,2023-03-27 15:00:50.936,0.12208316,-1.4908113,-0.51287925
186,2023-03-27 15:00:50.954,0.16842216,-2.1001427,-0.57839304
187,2023-03-27 15:00:50.975,0.44805408,-2.192288,-0.20714839
188,2023-03-27 15:00:50.994,1.3551267,-2.321185,0.46077242
189,2023-03-27 15:00:51.010,2.6009536,-2.9065478,0.80964655
190,2023-03-27 15:00:51.034,2.6622062,-2.9203963,0.08952777
191,2023-03-27 15:00:51.049,1.5607228,-2.0777721,-0.8436439
192,2023-03-27 15:00:51.071,-0.21560568,-0.16082865,-0.7312585
193,2023-03-27 15:00:51.089,-1.5929925,1.9297528,0.08420145
194,2023-03-27 15:00:51.113,-1.884875,3.0631943,0.4682293
195,2023-03-27 15:00:51.134,-1.7767507,2.9268403,0.3531807
196,2023-03-27 15:00:51.153,-1.648919,1.8951317,0.3824755
197,2023-03-27 15:00:51.171,-1.3160238,0.16141385,0.8021897
198,2023-03-27 15:00:51.188,-0.08457815,-2.7227898,1.2261649
199,2023-03-27 15:00:51.211,0.5982564,-3.497237,0.85225713
200,2023-03-27 15:00:51.227,0.39425823,-2.3360987,0.087929875
201,2023-03-27 15:00:51.251,-0.06966444,-1.1866784,-0.54909825
202,2023-03-27 15:00:51.269,-0.5586208,-0.49638698,-0.9874546
203,2023-03-27 15:00:51.294,-0.889918,-0.058563262,-1.3666887
204,2023-03-27 15:00:51.313,-0.98579186,-0.19917817,-1.93554
205,2023-03-27 15:00:51.330,-0.8307959,-0.89479584,-2.4964018
206,2023-03-27 15:00:51.349,-0.29283735,-1.6090558,-2.4388773
207,2023-03-27 15:00:51.366,0.3441908,-2.4234505,-1.5115647
208,2023-03-27 15:00:51.389,0.73461026,-3.0024216,-0.24176948
209,2023-03-27 15:00:51.404,0.80385244,-2.839436,0.6147031
210,2023-03-27 15:00:51.428,0.5769511,-2.202408,0.8474634
211,2023-03-27 15:00:51.451,0.15776952,-1.4364829,0.69885904
212,2023-03-27 15:00:51.467,-0.27419522,-0.51449645,0.33826703
213,2023-03-27 15:00:51.485,-0.53625023,0.44424155,-0.049489245
214,2023-03-27 15:00:51.504,-0.53465235,1.1654255,-0.21726839
215,2023-03-27 15:00:51.528,-0.34290478,1.5606387,-0.08464297
216,2023-03-27 15:00:51.542,-0.1415698,1.6139019,0.2338711
217,2023-03-27 15:00:51.566,-0.06700128,1.3300089,0.47728404
218,2023-03-27 15:00:51.584,-0.13091715,0.83572626,0.47568613
219,2023-03-27 15:00:51.605,-0.22572568,0.24130867,0.26955745
220,2023-03-27 15:00:51.624,-0.27099943,-0.39891526,-0.030314485
221,2023-03-27 15:00:51.643,-0.24276991,-1.027954,-0.31260955
222,2023-03-27 15:00:51.665,-0.15115717,-1.5360851,-0.50222665
223,2023-03-27 15:00:51.681,-0.051554944,-1.8189129,-0.5837194
224,2023-03-27 15:00:51.706,-0.020662274,-1.841816,-0.5645446
225,2023-03-27 15:00:51.721,-0.086176045,-1.6777653,-0.4670729
226,2023-03-27 15:00:51.745,-0.22146463,-1.4311565,-0.33711064
227,2023-03-27 15:00:51.762,-0.37113428,-1.1738952,-0.23857369
228,2023-03-27 15:00:51.784,-0.46168175,-0.91823167,-0.2023547
229,2023-03-27 15:00:51.804,-0.46434492,-0.6577745,-0.20448522
230,2023-03-27 15:00:51.819,-0.39137432,-0.43673214,-0.23857369
231,2023-03-27 15:00:51.844,-0.29603314,-0.28812775,-0.2950327
232,2023-03-27 15:00:51.859,-0.23797622,-0.2061024,-0.32912117
233,2023-03-27 15:00:51.882,-0.24117202,-0.1682855,-0.31900114
234,2023-03-27 15:00:51.901,-0.28165206,-0.15869813,-0.26946634
235,2023-03-27 15:00:51.923,-0.3221321,-0.1698834,-0.18690836
236,2023-03-27 15:00:51.943,-0.31893632,-0.1730792,-0.116068274
237,2023-03-27 15:00:51.960,-0.23371518,-0.116620176,-0.071327165
238,2023-03-27 15:00:51.981,0.020883039,0.052756876,-0.15068936
239,2023-03-27 15:00:51.997,0.3505824,0.19283915,-0.32592538
240,2023-03-27 15:00:52.021,0.52635103,0.11347695,-0.3530896
241,2023-03-27 15:00:52.043,0.47575095,-0.1714813,-0.19170205
242,2023-03-27 15:00:52.058,0.28560126,-0.4820059,0.04904772
243,2023-03-27 15:00:52.080,0.09065786,-0.6993198,0.24079531
244,2023-03-27 15:00:52.101,-0.03557598,-0.8782842,0.33081016
245,2023-03-27 15:00:52.121,-0.03877177,-1.0636404,0.32335332
246,2023-03-27 15:00:52.137,0.12421368,-1.2197015,0.18327104
247,2023-03-27 15:00:52.159,0.44272777,-1.2212994,-0.07452296
248,2023-03-27 15:00:52.178,0.7921345,-1.0418024,-0.34403488
249,2023-03-27 15:00:52.199,0.9849474,-0.8212926,-0.45482236
250,2023-03-27 15:00:52.217,0.9503263,-0.68174297,-0.34190434
251,2023-03-27 15:00:52.238,0.77029663,-0.62262076,-0.10275247
252,2023-03-27 15:00:52.258,0.5386016,-0.531008,0.13426888
253,2023-03-27 15:00:52.278,0.37135503,-0.22634242,0.29512382
254,2023-03-27 15:00:52.302,0.48746887,0.54490906,0.45171767
255,2023-03-27 15:00:52.313,0.88694304,1.6650345,0.7196317
256,2023-03-27 15:00:52.337,1.2517961,2.5460083,1.0834196
257,2023-03-27 15:00:52.352,1.4009331,2.8512065,1.3587904
258,2023-03-27 15:00:52.377,1.3375499,2.5539978,1.3247019
259,2023-03-27 15:00:52.394,1.0994633,1.662904,0.93108666
260,2023-03-27 15:00:52.413,0.6925323,0.22639497,0.40537867
261,2023-03-27 15:00:52.434,0.18919481,-1.4529945,0.03253612
262,2023-03-27 15:00:52.455,-0.2576836,-2.8964279,-0.08091454
263,2023-03-27 15:00:52.472,-0.45848596,-3.4945738,-0.064402945
264,2023-03-27 15:00:52.489,-0.23371518,-3.017868,0.005371874
265,2023-03-27 15:00:52.512,0.29252547,-1.7821612,0.113496214
266,2023-03-27 15:00:52.529,0.63234484,-0.6348713,0.13746467
267,2023-03-27 15:00:52.553,0.58121216,-0.24871297,0.045851924
268,2023-03-27 15:00:52.574,0.2616328,-0.48786485,-0.14429778
269,2023-03-27 15:00:52.586,-0.1666035,-1.1525899,-0.2966306
270,2023-03-27 15:00:52.607,-0.24649835,-1.5067903,-0.2486937
271,2023-03-27 15:00:52.626,0.46722883,-0.21728767,0.20084791
272,2023-03-27 15:00:52.646,1.063777,1.1569035,0.5896694
273,2023-03-27 15:00:52.667,0.578549,-0.24445191,0.26742694
274,2023-03-27 15:00:52.697,0.009697761,-2.8708615,-0.23750842
275,2023-03-27 15:00:52.704,-0.2374436,-5.142538,-0.49796557
276,2023-03-27 15:00:52.724,-0.529326,-6.4900975,-0.71101844
277,2023-03-27 15:00:52.746,-0.79777265,-6.112461,-0.8633513
278,2023-03-27 15:00:52.764,-0.7695432,-4.698323,-1.1323305
279,2023-03-27 15:00:52.792,-0.5884482,-3.4050915,-1.6393964
280,2023-03-27 15:00:52.807,-0.15328771,-2.105469,-1.7075734
281,2023-03-27 15:00:52.828,0.5306121,-0.82928205,-1.1642885
282,2023-03-27 15:00:52.845,0.84060407,-0.14964338,-0.18903889
283,2023-03-27 15:00:52.866,0.5071763,0.14223908,0.6466611
284,2023-03-27 15:00:52.890,-0.1682014,0.4053594,0.7968634
285,2023-03-27 15:00:52.908,-0.891516,0.576867,0.3824755
286,2023-03-27 15:00:52.927,-1.4497145,0.56301856,-0.15335253
287,2023-03-27 15:00:52.946,-1.6505169,0.2716687,-0.41114652
288,2023-03-27 15:00:52.968,-1.3053712,-0.4537764,-0.33444747
289,2023-03-27 15:00:52.983,-0.38711324,-1.8503381,-0.2023547
290,2023-03-27 15:00:53.007,0.6429975,-3.2639441,-0.33551276
291,2023-03-27 15:00:53.026,1.1346171,-3.6618204,-0.7690754
292,2023-03-27 15:00:53.046,1.0536569,-3.2490304,-1.178137
293,2023-03-27 15:00:53.068,0.67122704,-2.5885663,-1.2122254
294,2023-03-27 15:00:53.085,0.17321585,-2.011193,-0.733389
295,2023-03-27 15:00:53.103,-0.31733844,-1.4886808,0.057569835
296,2023-03-27 15:00:53.120,-0.62040615,-0.87242526,0.668499
297,2023-03-27 15:00:54.016,-0.72426945,-0.295052,-0.76321644
298,2023-03-27 15:00:54.018,-0.6507662,-0.20237397,-0.97999775
299,2023-03-27 15:00:54.018,-0.8563622,-0.06602011,-1.0156841
300,2023-03-27 15:00:54.018,-1.1759416,0.36487934,-0.55016357
301,2023-03-27 15:00:54.018,-1.4358661,0.21414444,0.30045012
302,2023-03-27 15:00:54.018,-1.4550408,-1.1925373,1.1329544
303,2023-03-27 15:00:54.018,-1.0987098,-2.6386337,1.4557295
304,2023-03-27 15:00:54.018,-0.51814073,-2.5523474,1.260786
305,2023-03-27 15:00:54.018,-0.14796138,-0.90172005,1.1542596
306,2023-03-27 15:00:54.018,-0.22306253,1.030137,1.2975377
307,2023-03-27 15:00:54.018,-0.509086,2.0479972,0.94919616
308,2023-03-27 15:00:54.018,-0.5570229,1.8509232,0.27914485
309,2023-03-27 15:00:54.018,-0.24010676,0.6908503,-0.13204724
310,2023-03-27 15:00:54.018,0.1540411,-0.23273401,-0.2518895
311,2023-03-27 15:00:54.018,0.3990519,-0.07933592,-0.35202435
312,2023-03-27 15:00:54.018,0.45071724,0.03784317,-0.5347172
313,2023-03-27 15:00:54.027,0.28240547,-0.3813384,-0.75469434
314,2023-03-27 15:00:54.049,-0.028119128,-0.46602693,-0.7989028
315,2023-03-27 15:00:54.067,-0.34290478,0.005352605,-0.4143423
316,2023-03-27 15:00:54.090,-0.55968606,0.54490906,0.19658685
317,2023-03-27 15:00:54.106,-0.49577022,0.34304142,0.59819156
318,2023-03-27 15:00:54.131,-0.2145404,-0.6013155,0.61789894
319,2023-03-27 15:00:54.149,-0.011607528,-1.3235649,0.4240208
320,2023-03-27 15:00:54.170,0.16362847,-1.3991987,0.40431342
321,2023-03-27 15:00:54.192,0.36496344,-0.84099996,0.5928652
322,2023-03-27 15:00:54.209,0.38520348,-0.5965218,0.63174736
323,2023-03-27 15:00:54.228,0.13912739,-1.1216972,0.5385367
324,2023-03-27 15:00:54.246,-0.12772135,-1.5888157,0.48900193
325,2023-03-27 15:00:54.269,-0.38072166,-1.3587185,0.55984205
326,2023-03-27 15:00:54.287,-0.57246923,-0.58640176,0.77182966
327,2023-03-27 15:00:54.311,-0.52293444,-0.2758772,0.95345724
328,2023-03-27 15:00:54.327,-0.23051937,-0.5629659,1.0450699
329,2023-03-27 15:00:54.349,0.14445372,-0.78081256,1.1041921
330,2023-03-27 15:00:54.371,0.37508348,-0.7552462,1.0589185
331,2023-03-27 15:00:54.386,0.08692943,-0.39199105,0.7696991
332,2023-03-27 15:00:54.407,-0.9458444,1.1308044,-0.102219835
333,2023-03-27 15:00:54.423,-0.8046969,0.1971002,-0.035640806
334,2023-03-27 15:00:54.446,-0.17352773,-0.9613749,0.69885904
335,2023-03-27 15:00:54.465,-0.2507594,-0.062824324,0.5891368
336,2023-03-27 15:00:54.487,-0.19163722,0.22000338,0.38673654
337,2023-03-27 15:00:54.509,-0.09523079,0.2018939,0.4815451
338,2023-03-27 15:00:54.526,-0.21560568,0.36115092,0.5939305
339,2023-03-27 15:00:54.546,-0.43771333,0.3574225,0.71537066
340,2023-03-27 15:00:54.564,-0.7924464,0.23438446,0.94706565
341,2023-03-27 15:00:54.585,-1.1583647,0.31374666,1.0956701
342,2023-03-27 15:00:54.602,-1.1280047,0.23598236,1.2410786
343,2023-03-27 15:00:54.624,-0.9708781,-0.10490227,1.323104
344,2023-03-27 15:00:54.645,-0.6161451,-0.56136805,1.236285
345,2023-03-27 15:00:54.665,-0.2624773,-0.74406093,0.9641099
346,2023-03-27 15:00:54.684,-0.2587489,-0.58427125,0.9710341
347,2023-03-27 15:00:54.703,-0.3168058,-0.39518684,1.3241693
348,2023-03-27 15:00:54.723,-0.37060165,-0.26682246,1.7731782
349,2023-03-27 15:00:54.738,-0.54157656,-0.18692763,2.1087365
350,2023-03-27 15:00:54.762,-0.80416423,-0.083596975,1.905271
351,2023-03-27 15:00:54.782,-0.89524436,-0.03885587,1.3417461
352,2023-03-27 15:00:54.803,-0.75782526,-0.100641206,1.0402763
353,2023-03-27 15:00:54.826,-0.6182756,-0.19598238,1.0429394
354,2023-03-27 15:00:54.842,-0.6827241,-0.3200857,1.0892785
355,2023-03-27 15:00:54.864,-0.78712004,-0.36429417,1.0930068
356,2023-03-27 15:00:54.880,-0.8078927,-0.26628983,1.101529
357,2023-03-27 15:00:54.900,-0.8153495,-0.1203486,1.0386784
358,2023-03-27 15:00:54.920,-0.8329264,0.009081031,0.8767582
359,2023-03-27 15:00:54.941,-0.8164148,0.083649546,0.7185664
360,2023-03-27 15:00:54.958,-0.75942314,0.14117381,0.6008547
361,2023-03-27 15:00:54.981,-0.6912462,0.2402434,0.49858934
362,2023-03-27 15:00:55.003,-0.5985682,0.2961698,0.41975975
363,2023-03-27 15:00:55.020,-0.5437071,0.34037828,0.37555128
364,2023-03-27 15:00:55.039,-0.56128395,0.35688987,0.32441857
365,2023-03-27 15:00:55.055,-0.47659546,0.3126814,0.28127536
366,2023-03-27 15:00:55.079,-0.41694066,0.22053602,0.22481635
367,2023-03-27 15:00:55.094,-0.34077424,0.06394215,0.17421629
368,2023-03-27 15:00:55.118,-0.26460785,-0.09691278,0.17048787
369,2023-03-27 15:00:55.142,-0.1964309,-0.21835294,0.19498895
370,2023-03-27 15:00:55.158,-0.14476559,-0.21675505,0.19392368
371,2023-03-27 15:00:55.176,-0.10162238,-0.11555491,0.1710205
372,2023-03-27 15:00:55.195,-0.06007706,-0.02234427,0.14864995
373,2023-03-27 15:00:55.217,-0.034510713,0.026125262,0.12574676
374,2023-03-27 15:00:55.232,-0.017999113,0.02825579,0.115626745
375,2023-03-27 15:00:55.258,-0.00734647,-0.0090284655,0.12627938
376,2023-03-27 15:00:55.279,0.0059693353,-0.052171674,0.12681203
377,2023-03-27 15:00:55.297,0.029405154,-0.085727505,0.10710463
378,2023-03-27 15:00:55.318,0.049645178,-0.08679277,0.095919356
379,2023-03-27 15:00:55.335,0.04751465,-0.07347696,0.0900604
380,2023-03-27 15:00:55.355,0.050710443,-0.06655274,0.0570372
381,2023-03-27 15:00:55.370,0.058167294,-0.04205166,0.013361357
382,2023-03-27 15:00:55.393,0.04751465,-0.037790604,-0.0010197127
383,2023-03-27 15:00:55.412,0.051243078,-0.07827065,-0.006346035
384,2023-03-27 15:00:55.435,0.07840732,-0.13632758,-0.0074112993
385,2023-03-27 15:00:55.456,0.09864734,-0.18905817,0.0011108163
386,2023-03-27 15:00:55.473,0.10344103,-0.2045045,0.011763461
387,2023-03-27 15:00:55.497,0.09758208,-0.15923075,0.004839242
388,2023-03-27 15:00:55.513,0.089059964,-0.094782256,-0.0127376225
389,2023-03-27 15:00:55.533,0.06775467,-0.07986855,-0.021792369
390,2023-03-27 15:00:55.552,0.029937785,-0.090521194,-0.013270254
391,2023-03-27 15:00:55.572,-0.03610861,-0.05270431,0.009632932
392,2023-03-27 15:00:55.594,-0.08777394,0.035712644,0.027209794
393,2023-03-27 15:00:55.613,-0.07978445,0.121466435,0.02827506
394,2023-03-27 15:00:55.634,-0.07179497,0.12306433,0.022948736
395,2023-03-27 15:00:55.651,-0.063272856,0.05222424,0.010165564
396,2023-03-27 15:00:55.672,-0.022792805,-0.027670594,0.002708713
397,2023-03-27 15:00:55.689,0.028872523,-0.023409536,0.0037739775
398,2023-03-27 15:00:55.709,0.028872523,0.0026894438,0.0059045064
399,2023-03-27 15:00:55.729,0.00916513,-0.023409536,0.008567667
400,2023-03-27 15:00:55.750,0.019817773,-0.040986396,0.0021760808
401,2023-03-27 15:00:55.768,0.04485149,-0.03193165,-0.016466048
402,2023-03-27 15:00:55.789,0.06935257,-0.03193165,-0.031912383
403,2023-03-27 15:00:55.813,0.07095046,-0.05376957,-0.028183958
404,2023-03-27 15:00:55.829,0.046982016,-0.07347696,-0.013802886
405,2023-03-27 15:00:55.848,0.049645178,-0.068683274,-0.015400783
406,2023-03-27 15:00:55.864,0.07574415,-0.040986396,-0.026053427
407,2023-03-27 15:00:55.888,0.07201573,-0.03832324,-0.039369233
408,2023-03-27 15:00:55.904,0.05443887,-0.07986855,-0.04842398
409,2023-03-27 15:00:55.928,0.061895717,-0.107565425,-0.050021876
410,2023-03-27 15:00:55.946,0.06722204,-0.09691278,-0.04789135
411,2023-03-27 15:00:55.967,0.050177813,-0.07720539,-0.03404291
412,2023-03-27 15:00:55.986,0.023013566,-0.061226424,-0.021792369
413,2023-03-27 15:00:56.005,-0.0020201476,-0.043116927,-0.0127376225
414,2023-03-27 15:00:56.026,-0.014270688,-0.009561097,-0.007943932
415,2023-03-27 15:00:56.043,-0.015868586,0.03038632,0.002708713
416,2023-03-27 15:00:56.065,-0.016933851,0.06127899,0.008567667
417,2023-03-27 15:00:56.083,-0.019064378,0.08258428,0.004839242
418,2023-03-27 15:00:56.106,-0.013205425,0.09163903,-0.004215506
419,2023-03-27 15:00:56.128,-0.008944366,0.07619269,-0.006878667
420,2023-03-27 15:00:56.145,-0.00042225095,0.040506333,-0.0074112993
421,2023-03-27 15:00:56.166,0.019285142,0.01600525,-0.009541828
422,2023-03-27 15:00:56.180,0.03739464,0.018135777,-0.013802886
423,2023-03-27 15:00:56.204,0.0384599,0.0085483985,-0.018063944
424,2023-03-27 15:00:56.219,0.029937785,-0.02926849,-0.019661842
425,2023-03-27 15:00:56.244,0.025144096,-0.063889585,-0.020194473
426,2023-03-27 15:00:56.266,0.027274624,-0.07454223,-0.021792369
427,2023-03-27 15:00:56.283,0.029937785,-0.062291685,-0.023390267
428,2023-03-27 15:00:56.305,0.026741993,-0.03832324,-0.020194473
429,2023-03-27 15:00:56.324,0.024078831,-0.0053000394,-0.014335519
430,2023-03-27 15:00:56.344,0.022480935,0.028788423,-0.01220499
431,2023-03-27 15:00:56.357,0.012893555,0.027723158,-0.01220499
432,2023-03-27 15:00:56.383,0.0049040713,-0.009561097,-0.010074461
433,2023-03-27 15:00:56.399,0.0049040713,-0.032464284,-0.0058134026
434,2023-03-27 15:00:56.420,0.008099864,-0.02926849,-0.0058134026
435,2023-03-27 15:00:56.444,0.0038388069,-0.013289523,-0.0052807704
436,2023-03-27 15:00:56.456,0.0011756457,0.0026894438,-0.0026176092
437,2023-03-27 15:00:56.481,-0.003085412,0.015472618,-0.002084977
438,2023-03-27 15:00:56.495,-0.003085412,0.020798938,-0.004215506
439,2023-03-27 15:00:56.520,0.0011756457,0.022929467,-0.0052807704
440,2023-03-27 15:00:56.537,0.0038388069,0.012276824,-0.0031502414
441,2023-03-27 15:00:56.560,0.0049040713,0.0026894438,-0.0015523449
442,2023-03-27 15:00:56.579,0.008099864,0.0016241793,-0.004215506
443,2023-03-27 15:00:56.601,0.011295659,-0.0015716141,-0.006346035
444,2023-03-27 15:00:56.618,0.01182829,-0.011691626,-0.0036828737
445,2023-03-27 15:00:56.638,0.0075672325,-0.018083213,4.5551802e-05
446,2023-03-27 15:00:56.656,0.001708278,-0.007963201,0.002708713
447,2023-03-27 15:00:56.679,-0.005215941,0.010146295,0.0037739775
448,2023-03-27 15:00:56.697,-0.010009631,0.017070513,0.0037739775
449,2023-03-27 15:00:56.718,-0.011607528,0.014939985,0.0032413453
450,2023-03-27 15:00:56.733,-0.011607528,0.015472618,0.0043066097
451,2023-03-27 15:00:56.756,-0.009476999,0.022396835,0.0043066097
452,2023-03-27 15:00:56.777,-0.008944366,0.026657892,0.0021760808
453,2023-03-27 15:00:56.797,-0.010542263,0.023994733,0.0016434485
454,2023-03-27 15:00:56.812,-0.010542263,0.01600525,0.002708713
455,2023-03-27 15:00:56.832,-0.008411734,0.0048199724,0.006437138
456,2023-03-27 15:00:56.852,-0.0121401595,-0.0031695107,0.009100299
457,2023-03-27 15:00:56.868,-0.015335954,0.0010915471,0.009100299
458,2023-03-27 15:00:56.887,-0.016933851,0.017070513,0.006437138
459,2023-03-27 15:00:56.908,-0.017466482,0.031451587,0.0032413453
460,2023-03-27 15:00:56.933,-0.016933851,0.033049483,0.0016434485
461,2023-03-27 15:00:56.949,-0.018531747,0.022396835,0.0011108163
462,2023-03-27 15:00:56.970,-0.014803321,0.0069505023,0.0032413453
463,2023-03-27 15:00:56.988,-0.011607528,0.0016241793,0.004839242
464,2023-03-27 15:00:57.014,-0.00734647,0.007483134,0.0032413453
465,2023-03-27 15:00:57.030,-0.0025527799,0.0064178696,4.5551802e-05
466,2023-03-27 15:00:57.052,0.0038388069,-0.005832672,-0.0026176092
467,2023-03-27 15:00:57.071,0.00916513,-0.015420052,-0.0031502414
468,2023-03-27 15:00:57.090,0.00916513,-0.0148874195,-0.0031502414
469,2023-03-27 15:00:57.110,0.006501968,-0.0074305683,-0.0036828737
470,2023-03-27 15:00:57.128,0.0059693353,-0.0015716141,-0.0052807704
471,2023-03-27 15:00:57.152,0.0006430135,-0.0005063496,-0.0026176092
472,2023-03-27 15:00:57.168,-0.0036180443,2.6282622e-05,0.002708713
473,2023-03-27 15:00:57.188,-0.007879103,0.0021568115,0.0059045064
474,2023-03-27 15:00:57.212,-0.009476999,0.012809456,0.0059045064
475,2023-03-27 15:00:57.230,-0.008944366,0.022396835,0.0032413453
476,2023-03-27 15:00:57.251,-0.010542263,0.023994733,0.00057818403
477,2023-03-27 15:00:57.266,-0.009476999,0.017603146,0.0021760808
478,2023-03-27 15:00:57.289,-0.008411734,0.0069505023,0.0043066097
479,2023-03-27 15:00:57.305,-0.0062812055,0.0021568115,0.005371874
480,2023-03-27 15:00:57.329,-0.0036180443,0.005352605,0.005371874
481,2023-03-27 15:00:57.344,-0.0025527799,0.010146295,0.002708713
482,2023-03-27 15:00:57.369,-0.0025527799,0.01121156,0.00057818403
483,2023-03-27 15:00:57.390,-0.0062812055,0.0069505023,0.00057818403
484,2023-03-27 15:00:57.408,-0.008411734,0.00055891485,0.0016434485
485,2023-03-27 15:00:57.426,-0.005748573,-0.0026368785,0.002708713
486,2023-03-27 15:00:57.442,-0.0025527799,0.0016241793,0.0021760808
487,2023-03-27 15:00:57.467,-0.0009548832,0.01121156,-0.0010197127
488,2023-03-27 15:00:57.481,-0.00042225095,0.018135777,-0.004748138
489,2023-03-27 15:00:57.507,-0.0020201476,0.014407353,-0.0052807704
490,2023-03-27 15:00:57.527,-0.0025527799,0.0010915471,-0.002084977
491,2023-03-27 15:00:57.547,-0.0025527799,-0.008495833,0.0021760808
492,2023-03-27 15:00:57.567,-0.0025527799,-0.008495833,0.004839242
493,2023-03-27 15:00:57.586,-0.0025527799,-0.0005063496,0.0043066097
494,2023-03-27 15:00:57.606,-0.00734647,0.0085483985,0.0037739775
495,2023-03-27 15:00:57.620,-0.010009631,0.012276824,0.0043066097
496,2023-03-27 15:00:57.645,-0.010009631,0.013342089,0.004839242
497,2023-03-27 15:00:57.663,-0.00734647,0.014407353,0.004839242
498,2023-03-27 15:00:57.680,-0.0068138377,0.01653788,0.0037739775
499,2023-03-27 15:00:57.703,-0.008411734,0.014939985,0.0037739775
500,2023-03-27 15:00:57.721,-0.008944366,0.009613663,0.0032413453
501,2023-03-27 15:00:57.743,-0.00734647,0.003222076,0.005371874
502,2023-03-27 15:00:57.760,-0.0068138377,-0.0021042463,0.006969771
503,2023-03-27 15:00:57.783,-0.0068138377,2.6282622e-05,0.0075024036
504,2023-03-27 15:00:57.798,-0.0068138377,0.0069505023,0.005371874
505,2023-03-27 15:00:57.823,-0.0041506765,0.01121156,0.0011108163
506,2023-03-27 15:00:57.842,-0.0014875154,0.0085483985,-0.0010197127
507,2023-03-27 15:00:57.863,0.0006430135,0.0021568115,-0.00048708043
508,2023-03-27 15:00:57.882,0.00011038128,-0.004234775,0.0011108163
509,2023-03-27 15:00:57.903,-0.0020201476,-0.0053000394,-0.00048708043
510,2023-03-27 15:00:57.926,-0.003085412,2.6282622e-05,-0.002084977
511,2023-03-27 15:00:57.937,-0.0036180443,0.0064178696,-0.00048708043
512,2023-03-27 15:00:57.961,-0.003085412,0.011744192,-0.0010197127
513,2023-03-27 15:00:57.975,-0.003085412,0.01653788,0.0016434485
514,2023-03-27 15:00:58.000,-0.005748573,0.012809456,0.0043066097
515,2023-03-27 15:00:58.018,-0.00734647,0.0069505023,0.0032413453
516,2023-03-27 15:00:58.040,-0.007879103,0.0069505023,0.002708713
517,2023-03-27 15:00:58.059,-0.007879103,0.008015766,0.00057818403
518,2023-03-27 15:00:58.078,-0.008411734,0.0069505023,-0.00048708043
519,2023-03-27 15:00:58.099,-0.005748573,0.007483134,-0.0026176092
520,2023-03-27 15:00:58.113,-0.003085412,0.005885237,-0.0031502414
521,2023-03-27 15:00:58.136,-0.0020201476,0.0026894438,-0.002084977
522,2023-03-27 15:00:58.154,-0.0009548832,-0.0010389818,4.5551802e-05
523,2023-03-27 15:00:58.178,-0.0014875154,0.00055891485,-0.0015523449
524,2023-03-27 15:00:58.199,0.0027735424,0.0016241793,-0.002084977
525,2023-03-27 15:00:58.217,0.0054367036,0.0042873407,-0.0026176092
526,2023-03-27 15:00:58.235,0.006501968,0.0064178696,-0.0052807704
527,2023-03-27 15:00:58.255,0.0033061747,0.0016241793,-0.0052807704
528,2023-03-27 15:00:58.276,0.0006430135,-0.0074305683,-0.002084977
529,2023-03-27 15:00:58.291,-0.00042225095,-0.012224258,4.5551802e-05
530,2023-03-27 15:00:58.316,0.001708278,-0.009561097,0.0011108163
531,2023-03-27 15:00:58.334,-0.00042225095,2.6282622e-05,0.00057818403
532,2023-03-27 15:00:58.356,-0.004683309,0.011744192,-0.0010197127
533,2023-03-27 15:00:58.385,-0.005748573,0.01866841,-0.0015523449
534,2023-03-27 15:00:58.390,-0.009476999,0.017603146,4.5551802e-05
535,2023-03-27 15:00:58.414,-0.014270688,0.011744192,0.0011108163
536,2023-03-27 15:00:58.429,-0.011607528,0.0064178696,0.0043066097
537,2023-03-27 15:00:58.456,-0.008411734,0.003222076,0.0059045064
538,2023-03-27 15:00:58.470,-0.007879103,0.005352605,0.004839242
539,2023-03-27 15:00:58.494,-0.008411734,0.009613663,0.002708713
540,2023-03-27 15:00:58.514,-0.010009631,0.012276824,0.0021760808
541,2023-03-27 15:00:58.534,-0.0121401595,0.005352605,0.002708713
542,2023-03-27 15:00:58.553,-0.013738057,-0.014354787,0.004839242
543,2023-03-27 15:00:58.571,-0.016933851,-0.04205166,0.011763461
544,2023-03-27 15:00:58.592,-0.022792805,-0.07454223,0.018687679
545,2023-03-27 15:00:58.608,-0.022792805,-0.083596975,0.021883473
546,2023-03-27 15:00:58.632,-0.025988597,-0.07720539,0.017089782
547,2023-03-27 15:00:58.650,-0.04303283,-0.08839066,0.01389399
548,2023-03-27 15:00:58.672,-0.068066545,-0.15283917,0.017622415
549,2023-03-27 15:00:58.694,-0.084045514,-0.24498455,0.025079267
550,2023-03-27 15:00:58.711,-0.086176045,-0.33872783,0.031470854
551,2023-03-27 15:00:58.731,-0.06966444,-0.41169843,0.025079267
552,2023-03-27 15:00:58.745,-0.049424414,-0.47454903,0.023481369
553,2023-03-27 15:00:58.771,-0.048359152,-0.5533786,0.027209794
554,2023-03-27 15:00:58.787,-0.052087575,-0.6077071,0.014959253
555,2023-03-27 15:00:58.810,-0.023325436,-0.5752165,0.002708713
556,2023-03-27 15:00:58.828,0.015024084,-0.46975535,0.0021760808
557,2023-03-27 15:00:58.850,0.04485149,-0.29292145,-0.018063944
558,2023-03-27 15:00:58.873,0.05923256,-0.18319921,-0.004215506
559,2023-03-27 15:00:58.888,0.024078831,-0.21089609,0.02827506
560,2023-03-27 15:00:58.909,-0.010009631,-0.31262884,0.05650457
561,2023-03-27 15:00:58.924,0.004371439,-0.39199105,0.081005655
562,2023-03-27 15:00:58.949,0.051243078,-0.3584352,0.07141827
563,2023-03-27 15:00:58.966,0.07787468,-0.19971082,0.009632932
564,2023-03-27 15:00:58.988,0.082135744,-0.03832324,-0.031912383
565,2023-03-27 15:00:59.012,0.094918914,0.089508496,-0.046293452
566,2023-03-27 15:00:59.027,0.10024524,0.18112123,-0.07771875
567,2023-03-27 15:00:59.050,0.10344103,0.27220136,-0.12565565
568,2023-03-27 15:00:59.063,0.094918914,0.34836775,-0.151222
569,2023-03-27 15:00:59.086,0.018752508,0.31747508,-0.12938407
570,2023-03-27 15:00:59.101,-0.05102231,0.18431702,-0.05801136
571,2023-03-27 15:00:59.126,0.03313358,0.1656749,0.006437138
572,2023-03-27 15:00:59.143,0.13167053,0.20988338,0.027209794
573,2023-03-27 15:00:59.165,0.083201006,0.38778254,0.054906674
574,2023-03-27 15:00:59.185,-0.05528337,0.5571596,0.041058235
575,2023-03-27 15:00:59.200,-0.07765393,0.6019007,-0.11393774
576,2023-03-27 15:00:59.224,0.0033061747,0.5704754,-0.22738841
577,2023-03-27 15:00:59.239,0.14818214,0.3409109,-0.29609796
578,2023-03-27 15:00:59.265,0.35004976,0.033582114,-0.31527272
579,2023-03-27 15:00:59.283,0.5662985,-0.20184134,-0.36374226
580,2023-03-27 15:00:59.304,0.7617745,-0.351511,-0.58957833
581,2023-03-27 15:00:59.322,0.73141444,-0.5171596,-0.6811911
582,2023-03-27 15:00:59.344,0.6339428,-0.7770841,-0.6737342
583,2023-03-27 15:00:59.363,0.63341016,-0.9208948,-0.7104858
584,2023-03-27 15:00:59.377,0.66643333,-0.87029475,-0.7887828
585,2023-03-27 15:00:59.400,0.6376712,-0.76270306,-0.8660144
586,2023-03-27 15:00:59.415,0.57428795,-0.629545,-0.95017034
587,2023-03-27 15:00:59.443,0.5327426,-0.4740164,-0.9906504
588,2023-03-27 15:00:59.461,0.5007847,-0.38506684,-0.9224735
589,2023-03-27 15:00:59.483,0.49865416,-0.34778258,-0.7935765
590,2023-03-27 15:00:59.500,0.506111,-0.3168899,-0.70515954
591,2023-03-27 15:00:59.516,0.48693624,-0.34884784,-0.6380479
592,2023-03-27 15:00:59.540,0.4416625,-0.33606467,-0.57359934
593,2023-03-27 15:00:59.555,0.38040978,-0.39891526,-0.5299235
594,2023-03-27 15:00:59.580,0.3441908,-0.56829226,-0.4734645
595,2023-03-27 15:00:59.596,0.35697398,-0.6417955,-0.34403488
596,2023-03-27 15:00:59.620,0.4171614,-0.4260795,-0.22365998
597,2023-03-27 15:00:59.638,0.4666962,-0.2162224,-0.2769232
598,2023-03-27 15:00:59.659,0.41662878,-0.03193165,-0.37972122
599,2023-03-27 15:00:59.682,0.2717528,-0.02234427,-0.4468329
600,2023-03-27 15:00:59.698,0.17587902,-0.22634242,-0.44150656
601,2023-03-27 15:00:59.717,0.1806727,-0.31475937,-0.3791886
602,2023-03-27 15:00:59.733,0.17268322,-0.14271916,-0.3147401
603,2023-03-27 15:00:59.758,0.087994695,0.12892328,-0.33125168
604,2023-03-27 15:00:59.775,0.0011756457,0.20242652,-0.46440974
605,2023-03-27 15:00:59.798,-0.008944366,0.0026894438,-0.6423089
606,2023-03-27 15:00:59.821,0.05177571,-0.07720539,-0.7717385
607,2023-03-27 15:00:59.836,0.089059964,0.18591492,-0.7477701
608,2023-03-27 15:00:59.856,0.23766436,0.10974852,-0.8415134
609,2023-03-27 15:00:59.874,0.34898448,0.17366438,-1.0614905
610,2023-03-27 15:00:59.890,0.30371076,0.22905813,-1.3246108
611,2023-03-27 15:00:59.912,0.21742433,-0.037790604,-1.5477837
612,2023-03-27 15:00:59.927,0.14392108,-0.35896784,-1.6974534
613,2023-03-27 15:00:59.947,0.09545155,-0.53154063,-1.8359377
614,2023-03-27 15:00:59.971,0.082135744,-0.33073834,-1.9616389
615,2023-03-27 15:00:59.987,0.057102032,0.15555489,-2.0292833
616,2023-03-27 15:01:00.007,0.009697761,0.76328826,-2.0676327
617,2023-03-27 15:01:00.031,-0.027586494,1.2250804,-2.1539192
618,2023-03-27 15:01:00.046,-0.07871919,1.5127017,-2.225292
619,2023-03-27 15:01:00.066,-0.22572568,1.7033842,-2.2274225
620,2023-03-27 15:01:00.086,-0.32159948,1.7683653,-2.1603107
621,2023-03-27 15:01:00.106,-0.11973187,1.3300089,-1.9765526
622,2023-03-27 15:01:00.129,0.28826442,0.49377635,-1.6974534
623,2023-03-27 15:01:00.145,0.6296817,-0.06495485,-1.359232
624,2023-03-27 15:01:00.165,0.7015871,-0.17094867,-0.9831935
625,2023-03-27 15:01:00.186,0.46616358,-0.2178203,-0.55815303
626,2023-03-27 15:01:00.209,0.10823472,-0.24871297,-0.17305993
627,2023-03-27 15:01:00.225,-0.17991932,-0.17840552,0.11722464
628,2023-03-27 15:01:00.249,-0.33598056,0.0064178696,0.2935259
629,2023-03-27 15:01:00.272,-0.30295736,0.13211907,0.31589645
630,2023-03-27 15:01:00.291,-0.07232761,0.03518001,0.18380368
631,2023-03-27 15:01:00.312,0.19931483,-0.23539717,0.008567667
632,2023-03-27 15:01:00.325,0.36123502,-0.44791743,-0.12672092
633,2023-03-27 15:01:00.350,0.3708224,-0.4393953,-0.1842452
634,2023-03-27 15:01:00.364,0.26216543,-0.24924561,-0.1661357
635,2023-03-27 15:01:00.390,0.082135744,-0.039921135,-0.109144054
636,2023-03-27 15:01:00.406,-0.06060969,0.042636864,-0.038303968
637,2023-03-27 15:01:00.426,-0.07339287,0.03731054,0.0394603399999999
638,2023-03-27 15:01:00.450,0.027274624,0.003222076,0.13426888
639,2023-03-27 15:01:00.469,0.15830214,-0.05643273,0.29299328
640,2023-03-27 15:01:00.493,0.23446856,-0.07347696,0.61630106
641,2023-03-27 15:01:00.504,0.29359072,-0.062291685,0.97476256
642,2023-03-27 15:01:00.528,0.3425929,-0.12514229,1.1452049
643,2023-03-27 15:01:00.543,0.32821184,-0.18905817,1.0285584
644,2023-03-27 15:01:00.565,0.20251063,-0.15763286,0.6642379
645,2023-03-27 15:01:00.585,-0.012672792,0.11880327,0.21203318
646,2023-03-27 15:01:00.607,-0.17778878,0.7169493,-0.060674522
647,2023-03-27 15:01:00.630,-0.17299509,1.5393333,0.06609195
648,2023-03-27 15:01:00.645,-0.022792805,2.31165,0.5204272
649,2023-03-27 15:01:00.665,0.26376334,2.6855578,1.0770279
650,2023-03-27 15:01:00.682,0.707446,2.28129,1.5686475
651,2023-03-27 15:01:00.703,0.96257687,0.77287567,1.4658494
652,2023-03-27 15:01:00.725,0.5508521,-0.9869412,0.27594906
653,2023-03-27 15:01:00.745,-0.2720647,-1.7549969,-1.0811979
654,2023-03-27 15:01:00.763,-0.97407395,-1.6996032,-1.8023819
655,2023-03-27 15:01:00.785,-1.3154912,-1.5973378,-1.748586
656,2023-03-27 15:01:00.804,-1.1807352,-1.5765651,-1.2681518
657,2023-03-27 15:01:00.821,-0.7887179,-1.6500684,-0.57626253
658,2023-03-27 15:01:00.843,-0.4920418,-1.6905484,-0.10062194
659,2023-03-27 15:01:00.863,-0.32586053,-1.5158451,-0.038303968
660,2023-03-27 15:01:00.883,-0.16447298,-0.71796197,-0.12991671
661,2023-03-27 15:01:00.902,0.26110017,0.9156211,0.08313618
662,2023-03-27 15:01:00.923,0.6696291,2.4410799,0.5928652
663,2023-03-27 15:01:00.942,0.9769579,3.256007,0.92735827
664,2023-03-27 15:01:00.961,1.1346171,2.524703,0.5854084
665,2023-03-27 15:01:00.983,0.68667334,0.3441067,-0.08091454
666,2023-03-27 15:01:00.998,-0.20175724,-1.481224,-0.39356965
667,2023-03-27 15:01:01.019,-1.1487774,-2.2769766,-0.48411715
668,2023-03-27 15:01:01.036,-1.7581086,-2.6157305,-0.61674255
669,2023-03-27 15:01:01.059,-1.5940578,-2.6663306,-0.908625
670,2023-03-27 15:01:01.079,-0.7839242,-2.332903,-1.1046337
671,2023-03-27 15:01:01.095,0.1508453,-1.5653799,-0.9048966
672,2023-03-27 15:01:01.122,0.7644377,-0.75790936,-0.5709362
673,2023-03-27 15:01:01.135,0.87202936,-0.2737467,-0.31101167
674,2023-03-27 15:01:01.156,0.54765636,0.029321054,-0.10648089
675,2023-03-27 15:01:01.173,-0.035043344,0.27060345,0.01389399
676,2023-03-27 15:01:01.193,-0.64703774,0.5385175,0.08153828
677,2023-03-27 15:01:01.212,-1.0411856,0.9294695,0.08366881
678,2023-03-27 15:01:01.237,-0.9948466,1.3007141,0.038395073
679,2023-03-27 15:01:01.258,-0.49949867,1.36463,0.021883473
680,2023-03-27 15:01:01.275,0.14072528,1.1052381,0.06928774
681,2023-03-27 15:01:01.294,0.5822774,0.68712187,0.14705205
682,2023-03-27 15:01:01.314,0.6264859,0.40269625,0.12468149
683,2023-03-27 15:01:01.336,0.37295294,0.2152097,-0.0031502414
684,2023-03-27 15:01:01.352,0.050710443,-0.03832324,-0.15867884
685,2023-03-27 15:01:01.380,-0.18684353,-0.32700992,-0.2620095
686,2023-03-27 15:01:01.393,-0.25981414,-0.52301854,-0.28491268
687,2023-03-27 15:01:01.416,-0.19057196,-0.5342038,-0.25295475
688,2023-03-27 15:01:01.438,-0.07232761,-0.33766255,-0.19809364
689,2023-03-27 15:01:01.455,0.046982016,-0.0021042463,-0.1544178
690,2023-03-27 15:01:01.476,0.12847474,0.2780603,-0.12831882
691,2023-03-27 15:01:01.491,0.15457372,0.30149612,-0.13843882
692,2023-03-27 15:01:01.515,0.12474632,0.07512743,-0.18477783
693,2023-03-27 15:01:01.530,0.07361363,-0.26149616,-0.2870432
694,2023-03-27 15:01:01.554,0.008632497,-0.5895976,-0.39996126
695,2023-03-27 15:01:01.573,-0.061142325,-0.77282304,-0.46281186
696,2023-03-27 15:01:01.594,-0.11813398,-0.7429957,-0.44470236
697,2023-03-27 15:01:01.613,-0.1367761,-0.52514905,-0.36320964
698,2023-03-27 15:01:01.630,-0.10428554,-0.2210161,-0.24336737
699,2023-03-27 15:01:01.650,-0.030782286,0.04902845,-0.12672092
700,2023-03-27 15:01:01.669,0.068287306,0.21893813,-0.06706611
701,2023-03-27 15:01:01.692,0.16522637,0.25888553,-0.09209982
702,2023-03-27 15:01:01.713,0.2286096,0.17419702,-0.16826624
703,2023-03-27 15:01:01.731,0.2302075,0.025592629,-0.24283475
704,2023-03-27 15:01:01.751,0.17854218,-0.12301176,-0.27639058
705,2023-03-27 15:01:01.772,0.103973664,-0.21835294,-0.25348738
706,2023-03-27 15:01:01.791,0.042720962,-0.21728767,-0.19170205
707,2023-03-27 15:01:01.806,0.020883039,-0.13313179,-0.13577567
708,2023-03-27 15:01:01.831,0.056569397,-0.015952684,-0.14110199
709,2023-03-27 15:01:01.846,0.13752949,0.053822137,-0.22792104
710,2023-03-27 15:01:01.869,0.23233803,0.03251685,-0.31101167
711,2023-03-27 15:01:01.891,0.3244834,-0.047377985,-0.290239
712,2023-03-27 15:01:01.910,0.4054435,-0.11928333,-0.14802621
713,2023-03-27 15:01:01.935,0.4501846,-0.09744541,0.065026686
714,2023-03-27 15:01:01.948,0.42621616,0.025592629,0.27701432
715,2023-03-27 15:01:01.968,0.3324729,0.20349179,0.44319558
716,2023-03-27 15:01:01.984,0.28240547,0.4516984,0.6104421
717,2023-03-27 15:01:02.011,0.3292771,0.7398525,0.81444025
718,2023-03-27 15:01:02.027,0.449652,0.99551594,1.0338848
719,2023-03-27 15:01:02.047,0.5913322,1.1782087,1.2432091
720,2023-03-27 15:01:02.069,0.62595326,1.2490488,1.3912809
721,2023-03-27 15:01:02.087,0.51995945,1.1782087,1.4184452
722,2023-03-27 15:01:02.115,0.41290036,1.0130928,1.3641167
723,2023-03-27 15:01:02.123,0.33566868,0.7920504,1.1867502
724,2023-03-27 15:01:02.147,0.1359316,0.47992793,0.7499917
725,2023-03-27 15:01:02.161,-0.28538048,-0.15230654,0.086864606
726,2023-03-27 15:01:02.185,-0.7136168,-0.964038,-0.5506962
727,2023-03-27 15:01:02.205,-0.73758525,-1.217571,-0.8612208
728,2023-03-27 15:01:02.223,-0.19483301,-0.78081256,-0.5709362
729,2023-03-27 15:01:02.240,0.56257004,-0.14591496,0.35477862
730,2023-03-27 15:01:02.261,0.9274231,0.119335905,0.6535853
731,2023-03-27 15:01:02.283,0.7202292,0.12785801,0.5161662
732,2023-03-27 15:01:02.298,0.07947258,0.09483482,0.42348817
733,2023-03-27 15:01:02.324,-0.6326567,-0.2971825,0.24825217
734,2023-03-27 15:01:02.339,-1.2584995,-0.5373996,0.25304586
735,2023-03-27 15:01:02.363,-1.4401271,-0.722223,0.41123763
736,2023-03-27 15:01:02.386,-1.0539688,-0.80051994,0.5561136
737,2023-03-27 15:01:02.405,-0.39403746,-0.752583,0.684478
738,2023-03-27 15:01:02.422,0.12581158,-0.71689665,0.73241484
739,2023-03-27 15:01:02.437,0.28400335,-1.0210297,0.6573137
740,2023-03-27 15:01:02.459,0.20677169,-1.3976008,0.5907347
741,2023-03-27 15:01:02.476,-0.004683309,-1.5909462,0.6461284
742,2023-03-27 15:01:02.500,-0.16447298,-1.5552598,0.7995265
743,2023-03-27 15:01:02.522,-0.093100265,-1.064173,0.9033898
744,2023-03-27 15:01:02.541,0.11515894,-0.48626694,0.61150736
745,2023-03-27 15:01:02.560,0.21742433,-0.38187104,-0.06972927
746,2023-03-27 15:01:02.581,0.035796743,-0.18852553,-0.8889176
747,2023-03-27 15:01:02.601,-0.48511758,0.6631534,-1.8375356
748,2023-03-27 15:01:02.615,-1.1152215,1.5664977,-2.6034608
749,2023-03-27 15:01:02.640,-1.3554386,1.8930012,-2.9342253
750,2023-03-27 15:01:02.656,-0.89045066,1.2948552,-2.9949455
751,2023-03-27 15:01:02.679,-0.077121295,-0.06655274,-2.6268966
752,2023-03-27 15:01:02.699,0.56576586,-1.805597,-1.8082409
753,2023-03-27 15:01:02.719,0.7916019,-3.0759249,-0.95336616
754,2023-03-27 15:01:02.741,0.90132415,-3.4130812,-0.32219693
755,2023-03-27 15:01:02.759,1.0547222,-2.8314466,-0.006346035
756,2023-03-27 15:01:02.777,1.0888107,-1.672439,0.043188766
757,2023-03-27 15:01:02.792,0.91943365,-0.51449645,-0.030847117
758,2023-03-27 15:01:02.816,0.6019848,0.5390501,-0.06387032
759,2023-03-27 15:01:02.835,0.20251063,1.4130995,-0.008476564
760,2023-03-27 15:01:02.858,-0.21347514,1.9942013,0.09911515
761,2023-03-27 15:01:02.878,-0.5485008,2.1768942,0.22801214
762,2023-03-27 15:01:02.897,-0.6912462,1.8578475,0.3862039
763,2023-03-27 15:01:02.915,-0.5943072,1.1419897,0.54599357
764,2023-03-27 15:01:02.930,-0.34077424,0.2514287,0.58434314
765,2023-03-27 15:01:02.953,-0.09523079,-0.5038438,0.42828187
766,2023-03-27 15:01:02.970,0.043253593,-0.8266189,0.12042043
767,2023-03-27 15:01:02.987,0.060297824,-0.7344735,-0.27053162
768,2023-03-27 15:01:03.006,-0.010009631,-0.4489827,-0.6673426
769,2023-03-27 15:01:03.027,-0.1085466,-0.2359298,-0.9613556
770,2023-03-27 15:01:03.047,-0.19483301,-0.22580978,-1.0439136
771,2023-03-27 15:01:03.066,-0.2757931,-0.3696205,-0.8953092
772,2023-03-27 15:01:03.089,-0.36048165,-0.54805225,-0.6018289
773,2023-03-27 15:01:03.108,-0.4638123,-0.59758705,-0.3035548
774,2023-03-27 15:01:03.130,-0.57087135,-0.43992794,-0.10807879
775,2023-03-27 15:01:03.152,-0.6507662,-0.14378442,0.012296093
776,2023-03-27 15:01:03.169,-0.68165886,0.12572747,0.07567933
777,2023-03-27 15:01:03.189,-0.6283956,0.2402434,0.07301617
778,2023-03-27 15:01:03.209,-0.49843338,0.15662014,0.038395073
779,2023-03-27 15:01:03.228,-0.3120121,-0.030333756,-0.030314485
780,2023-03-27 15:01:03.246,-0.056348633,-0.14591496,-0.15068936
781,2023-03-27 15:01:03.272,0.27707914,-0.07507486,-0.2454979
782,2023-03-27 15:01:03.286,0.588669,0.08684534,-0.21726839
783,2023-03-27 15:01:03.309,0.71596813,0.058083195,-0.104350366
784,2023-03-27 15:01:03.329,0.61689854,-0.24871297,-0.031379748
785,2023-03-27 15:01:03.348,0.37934452,-0.59758705,4.5551802e-05
786,2023-03-27 15:01:03.372,0.14019266,-0.65031767,0.06875511
787,2023-03-27 15:01:03.388,0.073080994,-0.20503713,0.20031527
788,2023-03-27 15:01:03.410,0.26749176,0.62373865,0.42348817
789,2023-03-27 15:01:03.426,0.588669,1.4418616,0.69406533
790,2023-03-27 15:01:03.449,0.8315493,1.9798203,0.95878357
791,2023-03-27 15:01:03.466,0.96151155,2.3020627,1.236285
792,2023-03-27 15:01:03.489,0.9828169,2.4671788,1.5494727
793,2023-03-27 15:01:03.507,0.9173031,2.5603893,1.9287069
794,2023-03-27 15:01:03.528,0.7202292,2.4405472,2.2520146
795,2023-03-27 15:01:03.549,0.16469374,1.7561147,1.874911
796,2023-03-27 15:01:03.562,-0.50802076,0.6450439,0.94919616
797,2023-03-27 15:01:03.586,-1.0140214,-0.62208813,0.029872956
798,2023-03-27 15:01:03.601,-1.0177498,-1.3294238,-0.63272154
799,2023-03-27 15:01:03.628,-0.31041422,-0.97256017,-0.7664122
800,2023-03-27 15:01:03.645,0.7202292,-0.22580978,-0.43671286
801,2023-03-27 15:01:03.666,1.4414132,-0.0015716141,-0.24816106
802,2023-03-27 15:01:03.691,1.6262366,-0.23220137,-0.2934348
803,2023-03-27 15:01:03.703,1.4520658,-0.7142335,-0.35841593
804,2023-03-27 15:01:03.725,1.0222317,-1.2154405,-0.13737357
805,2023-03-27 15:01:03.748,0.46083724,-1.4998661,0.15344363
806,2023-03-27 15:01:03.765,-0.009476999,-1.5163777,0.11615938
807,2023-03-27 15:01:03.781,-0.31627315,-1.1419373,0.046384558
808,2023-03-27 15:01:03.802,-0.4952376,-0.5965218,0.10444147
809,2023-03-27 15:01:03.822,-0.7674126,0.027723158,0.47621876
810,2023-03-27 15:01:03.848,-1.1120257,0.85543364,1.0993985
811,2023-03-27 15:01:03.862,-1.246249,1.5792809,1.637357
812,2023-03-27 15:01:03.880,-1.1961815,1.6778178,1.8062015
813,2023-03-27 15:01:03.904,-1.0502404,1.4535795,1.5510706
814,2023-03-27 15:01:03.918,-0.7354547,0.85809684,0.83627814
815,2023-03-27 15:01:03.939,-0.23478043,-0.23060347,-0.22685577
816,2023-03-27 15:01:03.960,0.04538412,-1.2665732,-1.2447159
817,2023-03-27 15:01:03.984,-0.478726,-2.4942906,-1.5584364
818,2023-03-27 15:01:04.003,-1.5093694,-3.343839,-1.0156841
819,2023-03-27 15:01:04.020,-1.1322657,-0.83673894,-0.55655515
820,2023-03-27 15:01:04.042,0.036329374,2.6109893,-0.82873017
821,2023-03-27 15:01:04.057,0.52635103,3.7907698,-1.1999749
822,2023-03-27 15:01:04.081,0.51623106,3.2453544,-1.1957138
823,2023-03-27 15:01:04.098,0.2467191,1.793399,-0.98372614
824,2023-03-27 15:01:04.122,-0.19909407,-0.06708538,-0.7914459
825,2023-03-27 15:01:04.139,-0.53465235,-1.7123864,-0.60555726
826,2023-03-27 15:01:04.160,-0.64916825,-2.8926995,-0.4984982
827,2023-03-27 15:01:04.180,-0.52346706,-3.431723,-0.5613488
828,2023-03-27 15:01:04.197,-0.14370032,-3.130786,-0.7877175
829,2023-03-27 15:01:04.220,0.45444566,-2.0777721,-1.0210104
830,2023-03-27 15:01:04.235,1.0568527,-0.7967915,-1.0758716
831,2023-03-27 15:01:04.258,1.3210384,-0.014354787,-0.89424396
832,2023-03-27 15:01:04.275,1.2123814,0.20615494,-0.5187382
833,2023-03-27 15:01:04.298,0.8645725,0.18112123,-0.094230354
834,2023-03-27 15:01:04.319,0.3788119,0.09962851,0.2621006
835,2023-03-27 15:01:04.336,-0.098959215,0.09696535,0.5012525
836,2023-03-27 15:01:04.358,-0.40575537,0.28391925,0.5944631
837,2023-03-27 15:01:04.373,-0.45529017,0.5885849,0.5518525
838,2023-03-27 15:01:04.395,-0.3002942,0.8197473,0.42029238
839,2023-03-27 15:01:04.411,-0.045163356,0.87354314,0.24132796
840,2023-03-27 15:01:04.437,0.19611904,0.75263566,0.019220311
841,2023-03-27 15:01:04.455,0.31383076,0.45436156,-0.21620314
842,2023-03-27 15:01:04.474,0.24884963,0.06127899,-0.41807073
843,2023-03-27 15:01:04.498,0.019285142,-0.3035741,-0.5522941
844,2023-03-27 15:01:04.514,-0.27472785,-0.5917281,-0.5656099
845,2023-03-27 15:01:04.535,-0.5303913,-0.74619144,-0.44630027
846,2023-03-27 15:01:04.549,-0.6981704,-0.7248862,-0.26467267
847,2023-03-27 15:01:04.575,-0.75782526,-0.5294101,-0.09369772
848,2023-03-27 15:01:04.591,-0.69710517,-0.2460498,0.028807692
849,2023-03-27 15:01:04.614,-0.5426418,0.015472618,0.085799344
850,2023-03-27 15:01:04.634,-0.34397003,0.19177388,0.08313618
851,2023-03-27 15:01:04.652,-0.16287509,0.24290657,0.030938221
852,2023-03-27 15:01:04.672,-0.032380186,0.13691276,-0.037238702
853,2023-03-27 15:01:04.692,0.09172312,-0.081466444,-0.0718598
854,2023-03-27 15:01:04.716,0.2861339,-0.25723508,-0.029249221
855,2023-03-27 15:01:04.728,0.5348732,-0.29611725,0.06129826
856,2023-03-27 15:01:04.752,0.70691335,-0.24871297,0.1081699
857,2023-03-27 15:01:04.770,0.6957281,-0.19758028,0.06236352
858,2023-03-27 15:01:04.792,0.5354058,-0.09105383,0.022948736
859,2023-03-27 15:01:04.809,0.34898448,0.164077,0.113496214
860,2023-03-27 15:01:04.830,0.26695913,0.56568176,0.30684173
861,2023-03-27 15:01:04.852,0.32874447,0.99604857,0.50391567
862,2023-03-27 15:01:04.866,0.4714899,1.32415,0.66530323
863,2023-03-27 15:01:04.895,0.61263746,1.5233544,0.7968634
864,2023-03-27 15:01:04.908,0.7351429,1.6740893,0.9193688
865,2023-03-27 15:01:04.930,0.78840613,1.8072474,1.0445373
866,2023-03-27 15:01:04.949,0.74313235,1.8876748,1.0983332
867,2023-03-27 15:01:04.969,0.6840102,1.8690327,1.0168405
868,2023-03-27 15:01:04.992,0.5519174,1.5377355,0.68128216
869,2023-03-27 15:01:05.006,0.23127277,0.64877236,-0.015400783
870,2023-03-27 15:01:05.023,-0.13358031,-0.57095546,-0.7610859
871,2023-03-27 15:01:05.042,-0.24862887,-1.4940071,-1.1509727
872,2023-03-27 15:01:05.060,0.1939885,-1.8972098,-0.8974398
873,2023-03-27 15:01:05.081,1.3306258,-2.1827006,0.27381852
874,2023-03-27 15:01:05.105,1.7865589,-1.4455376,0.5475915
875,2023-03-27 15:01:05.126,1.0382106,-0.14218652,0.14758468
876,2023-03-27 15:01:05.140,-0.21720357,0.90603375,-0.35522014
877,2023-03-27 15:01:05.166,-1.282468,1.0317348,-0.4851824
878,2023-03-27 15:01:05.181,-1.9679657,0.3078877,0.027742427
879,2023-03-27 15:01:05.205,-2.018033,-0.13579494,0.8778235
880,2023-03-27 15:01:05.222,-1.365026,0.2615487,1.2426765
881,2023-03-27 15:01:05.245,-0.6800609,0.3936415,1.03495
882,2023-03-27 15:01:05.264,-0.42706066,-0.24658245,0.88634557
883,2023-03-27 15:01:05.285,-0.39084166,-1.0141056,0.90392244
884,2023-03-27 15:01:05.302,-0.33811107,-1.4279608,0.9571857
885,2023-03-27 15:01:05.322,-0.24010676,-1.2585837,1.0216342
886,2023-03-27 15:01:05.344,-0.122927666,-0.69878715,0.87249714
887,2023-03-27 15:01:05.357,-0.061674956,-0.19385186,0.46130505
888,2023-03-27 15:01:05.384,-0.065936014,0.09803061,-0.053750303
889,2023-03-27 15:01:05.400,-0.1399719,0.49857005,-0.5938394
890,2023-03-27 15:01:05.424,-0.4259954,0.9816675,-1.2377918
891,2023-03-27 15:01:05.442,-0.71521467,1.1350656,-2.003717
892,2023-03-27 15:01:05.463,-0.5804587,0.9246759,-2.6125154
893,2023-03-27 15:01:05.482,-0.019064378,0.37819517,-2.7818925
894,2023-03-27 15:01:05.498,0.51782894,-0.72435355,-2.5150437
895,2023-03-27 15:01:05.523,0.73620814,-2.2753787,-1.8881357
896,2023-03-27 15:01:05.537,0.753785,-3.565414,-0.9048966
897,2023-03-27 15:01:05.561,0.85338724,-3.867949,0.06662458
898,2023-03-27 15:01:05.580,0.98441476,-3.0812511,0.55877674
899,2023-03-27 15:01:05.600,0.8746925,-1.8604581,0.493263
900,2023-03-27 15:01:05.620,0.4677615,-0.444189,0.14492153
901,2023-03-27 15:01:05.639,-0.035043344,1.0029727,-0.20927891
902,2023-03-27 15:01:05.662,-0.47020388,1.884479,-0.3722644
903,2023-03-27 15:01:05.682,-0.78285897,2.0783572,-0.27053162
904,2023-03-27 15:01:05.700,-0.93785495,1.7726263,0.06822248
905,2023-03-27 15:01:05.714,-0.905897,1.1409245,0.4948609
906,2023-03-27 15:01:05.740,-0.6646146,0.37286884,0.77822125
907,2023-03-27 15:01:05.757,-0.27739102,-0.31103095,0.77342755
908,2023-03-27 15:01:05.777,0.08533154,-0.6876019,0.4767514
909,2023-03-27 15:01:05.799,0.28879705,-0.7206251,0.009632932
910,2023-03-27 15:01:05.819,0.2829381,-0.5448565,-0.43298444
911,,,,
912,,,,
913,,,,
914,,,,
915,,,,
916,,,,
917,,,,
918,,,,
919,,,,
920,,,,
921,,,,
922,,,,
923,,,,
924,,,,
925,,,,
926,,,,
