,p_gyroscope_time,p_gyroscope_x,p_gyroscope_y,p_gyroscope_z
0,2023-04-11 15:10:16.142,0.008963818,0.0011106106,0.021972392
1,2023-04-11 15:10:16.183,0.016420668,0.004306404,0.024635553
2,2023-04-11 15:10:16.223,0.00949645,0.018687474,0.017711334
3,2023-04-11 15:10:16.266,0.00949645,0.019220106,0.0075913216
4,2023-04-11 15:10:16.305,0.0020395988,-0.0010199184,0.013982907
5,2023-04-11 15:10:16.347,-9.0930145e-05,-0.017531518,0.009721851
6,2023-04-11 15:10:16.387,0.0063006566,-0.00847677,0.008656586
7,2023-04-11 15:10:16.427,0.0057692546,-0.005811358,0.010252724
8,2023-04-11 15:10:16.466,-0.004350757,-0.024986118,0.0065242993
9,2023-04-11 15:10:16.507,-0.0096770795,-0.015398739,0.0022632414
10,2023-04-11 15:10:16.543,-0.00062233186,-0.007941887,-0.0030630808
11,2023-04-11 15:10:16.585,0.015356636,-0.026584014,-0.02916206
12,2023-04-11 15:10:16.680,0.013758738,-0.07025986,-0.042477865
13,2023-04-11 15:10:16.722,0.04731457,0.1092372,0.0065242993
14,2023-04-11 15:10:16.762,-0.02672131,-0.6545574,-0.10106741
15,2023-04-11 15:10:16.806,-0.061342407,-0.27745378,-0.07816422
16,2023-04-11 15:10:16.842,0.20284317,0.14012986,-0.318914
17,2023-04-11 15:10:16.899,0.35996968,0.1092372,-0.6091986
18,2023-04-11 15:10:16.937,0.4579718,-0.33817786,-0.85580415
19,2023-04-11 15:10:16.977,0.47022235,-0.7770668,-0.9282421
20,2023-04-11 15:10:17.019,0.5501172,-0.7179446,-0.8659241
21,2023-04-11 15:10:17.058,0.4361339,-1.3134274,-0.7167871
22,2023-04-11 15:10:17.098,0.3812728,-2.8559303,-1.3436953
23,2023-04-11 15:10:17.142,0.09418401,-3.85142,-1.3335752
24,2023-04-11 15:10:17.165,0.31309587,-4.4255977,-1.0677918
25,2023-04-11 15:10:17.186,0.1964494,-4.5438423,-0.66405654
26,2023-04-11 15:10:17.200,0.019615505,-4.4532948,-0.4696458
27,2023-04-11 15:10:17.242,0.086727165,-3.7310452,-0.4270352
28,2023-04-11 15:10:17.282,0.25024524,-3.7390347,0.3799026
29,2023-04-11 15:10:17.323,0.30830216,-3.2122614,0.1977424
30,2023-04-11 15:10:17.363,0.004701803,0.12308164,-0.40466467
31,2023-04-11 15:10:17.401,-0.47999352,0.39578936,-0.2597887
32,2023-04-11 15:10:17.442,-0.116736844,0.9832854,-0.081359036
33,2023-04-11 15:10:17.482,0.055303365,1.1036603,-0.1452749
34,2023-04-11 15:10:17.527,-0.061343092,1.2203068,-0.6209155
35,2023-04-11 15:10:17.563,-0.26640648,1.3854228,-0.94102746
36,2023-04-11 15:10:17.604,-0.27226543,1.768918,-0.86166525
37,2023-04-11 15:10:17.644,-0.14762951,1.7928864,-0.6123933
38,2023-04-11 15:10:17.683,0.018551745,1.5622567,-0.5309006
39,2023-04-11 15:10:17.721,0.04837915,1.5659851,-0.6347639
40,2023-04-11 15:10:17.757,0.0723476,0.28713512,-0.8669916
41,2023-04-11 15:10:17.800,0.08672867,0.14865075,-0.73489875
42,2023-04-11 15:10:17.841,0.5011165,-0.47452897,-0.3732415
43,2023-04-11 15:10:17.883,1.0614457,-0.87293786,-0.045672685
44,2023-04-11 15:10:17.922,1.2382796,-0.6039586,-0.20759289
45,2023-04-11 15:10:17.966,0.48620287,-0.6060891,-0.205995
46,2023-04-11 15:10:17.998,-0.78465766,0.6019208,-0.51971537
47,2023-04-11 15:10:18.036,-0.8171482,0.28766775,-0.2427466
48,2023-04-11 15:10:18.076,-0.1721306,-0.44949526,0.67497873
49,2023-04-11 15:10:18.140,0.9288202,-0.7184745,0.9897644
50,2023-04-11 15:10:18.179,0.4057754,-0.22632234,0.4534037
51,2023-04-11 15:10:18.219,-0.022993568,0.42934793,0.39800996
52,2023-04-11 15:10:18.244,-0.22273065,0.2716888,0.62065023
53,2023-04-11 15:10:18.281,-0.2717328,0.24345928,0.5418207
54,2023-04-11 15:10:18.322,-0.5103521,0.14012863,0.25313398
55,2023-04-11 15:10:18.362,-0.6477712,-0.11127379,0.08002853
56,2023-04-11 15:10:18.401,-0.44696882,-1.2910541,-0.5735112
57,2023-04-11 15:10:18.461,-0.24936228,-0.7791946,-1.0992193
58,2023-04-11 15:10:18.476,-0.70582813,-0.26094344,-0.3615236
59,2023-04-11 15:10:18.520,-1.2017087,0.28606987,0.43422896
60,2023-04-11 15:10:18.567,-0.9407189,0.59872496,0.06831062
61,2023-04-11 15:10:18.600,-0.21261065,0.32335413,-0.21984343
62,2023-04-11 15:10:18.657,0.7120389,-0.8585568,0.0011989537
63,2023-04-11 15:10:18.699,0.44359228,-0.45162576,0.22170869
64,2023-04-11 15:10:18.742,0.5272155,0.2967225,0.8406274
65,2023-04-11 15:10:18.785,0.21988672,0.7649062,1.1751204
66,2023-04-11 15:10:18.818,0.24385518,0.6125734,1.3945649
67,2023-04-11 15:10:18.859,0.23799622,1.0503972,1.2038825
68,2023-04-11 15:10:18.900,0.34665322,0.47621956,0.48695955
69,2023-04-11 15:10:18.940,0.45797333,-0.30888033,-0.3663173
70,2023-04-11 15:10:18.957,0.591664,-0.2273876,-0.3434141
71,2023-04-11 15:10:19.015,0.6475904,0.48261115,0.13382438
72,2023-04-11 15:10:19.057,0.79246634,0.8591821,0.16045599
73,2023-04-11 15:10:19.097,0.49259445,0.07461486,-0.30293405
74,2023-04-11 15:10:19.137,-0.13910739,-0.2598782,0.0033294826
75,2023-04-11 15:10:19.154,-0.37293294,-0.32912037,0.25526452
76,2023-04-11 15:10:19.199,-0.23125277,-0.15654752,0.43902263
77,2023-04-11 15:10:19.256,-0.07093047,-0.6486997,-0.5585975
78,2023-04-11 15:10:19.279,0.0052359393,0.25890562,-0.51971537
79,2023-04-11 15:10:19.333,0.056901265,0.19179395,-0.16391703
80,2023-04-11 15:10:19.374,1.4827578,-0.89956945,-0.17936337
81,2023-04-11 15:10:19.416,0.56556505,0.0037747717,-0.11491487
82,2023-04-11 15:10:19.459,-0.3276592,1.7385579,0.4214458
83,2023-04-11 15:10:19.475,-0.5471037,1.7113937,0.08215906
84,2023-04-11 15:10:19.515,-0.17852007,0.45225498,-0.55220896
85,2023-04-11 15:10:19.576,0.25610784,-1.7363309,-0.3167855
86,2023-04-11 15:10:19.617,-0.7010323,-3.1616547,-0.098938935
87,2023-04-11 15:10:19.656,-1.1766729,-0.13523836,-0.9042789
88,2023-04-11 15:10:19.694,-1.8291473,1.3374897,-0.65500695
89,2023-04-11 15:10:19.740,-1.7236862,0.52735615,0.35220057
90,2023-04-11 15:10:19.779,-0.5119478,-0.66520745,0.3143837
91,2023-04-11 15:10:19.797,0.11229714,-0.8798582,-0.20173696
92,2023-04-11 15:10:22.570,-3.247547,0.7489311,0.5988093
93,2023-04-11 15:10:22.758,-3.2699175,0.109239824,0.47044492
94,2023-04-11 15:10:22.758,-3.3711176,0.55398774,0.5631229
95,2023-04-11 15:10:22.758,-3.0387533,-0.39249635,0.34740424
96,2023-04-11 15:10:22.759,-2.4118452,-0.9373791,-0.026503585
97,2023-04-11 15:10:22.759,-2.745273,-0.76161045,0.18867983
98,2023-04-11 15:10:22.759,-1.7455223,-1.0098171,-0.5117315
99,2023-04-11 15:10:22.759,-0.80542636,-0.60608184,-0.5415589
100,2023-04-11 15:10:22.759,-2.0576448,-0.9885118,-0.28323233
101,2023-04-11 15:10:22.784,0.18100853,-0.29608992,-0.24914387
102,2023-04-11 15:10:22.759,-1.3636249,-0.93950963,-0.6416938
103,2023-04-11 15:10:22.823,0.0047072717,-0.25134882,-0.104267895
104,2023-04-11 15:10:22.761,-0.20674773,-0.31632996,-0.33969134
105,2023-04-11 15:10:22.861,-1.1963784,-0.66893244,0.076827064
106,2023-04-11 15:10:22.805,0.23373912,-0.2508162,-0.19747853
107,2023-04-11 15:10:22.908,-2.577494,-0.25827304,0.3058589
108,2023-04-11 15:10:22.842,-0.49490175,-0.43990064,0.0017259219
109,2023-04-11 15:10:22.940,-2.8395488,0.16144116,0.21105039
110,2023-04-11 15:10:22.882,-1.929813,-0.6071471,0.18388614
111,2023-04-11 15:10:22.980,-1.6267452,0.08527475,-0.15699849
112,2023-04-11 15:10:22.926,-2.9519343,-0.015392739,0.30852208
113,2023-04-11 15:10:23.019,-0.57266605,-0.29129624,-0.39135668
114,2023-04-11 15:10:22.961,-2.310645,0.28714237,0.05179335
115,2023-04-11 15:10:23.059,-0.30848047,0.21310648,0.24726938
116,2023-04-11 15:10:23.000,-0.9950434,-0.27798042,-0.34022397
117,2023-04-11 15:10:23.099,-0.106080234,0.11403689,1.274717
118,2023-04-11 15:10:23.040,-0.320731,-0.052676994,-0.19375011
119,2023-04-11 15:10:23.164,0.42016163,-0.21139915,0.8054662
120,2023-04-11 15:10:23.080,-0.36600474,0.36916772,0.82517534
121,2023-04-11 15:10:23.126,0.43294358,-0.23217405,1.3183929
122,2023-04-11 15:10:23.199,-1.3412532,-0.09635059,1.0707171
123,2023-04-11 15:10:23.143,0.75678515,-0.22737812,1.0494118
124,2023-04-11 15:10:23.221,-1.2048993,1.0461456,0.3713709
125,2023-04-11 15:10:23.181,-0.51833636,-0.47132367,0.8454136
126,2023-04-11 15:10:23.303,-0.5178037,0.80433047,-0.35726997
127,2023-04-11 15:10:23.242,-1.571883,0.7808947,0.9913548
128,2023-04-11 15:10:23.341,0.36317,-0.9144737,0.05605265
129,2023-04-11 15:10:23.266,0.020154838,0.27702463,-0.85102004
130,2023-04-11 15:10:23.381,-0.6440376,1.2432195,0.3095856
131,2023-04-11 15:10:23.287,0.21669613,-0.414332,-0.9873739
132,2023-04-11 15:10:23.423,-2.140734,1.605942,-0.3892279
133,2023-04-11 15:10:23.321,0.28913411,-1.0598823,-0.593226
134,2023-04-11 15:10:23.469,-1.9553782,0.46930486,-0.588965
135,2023-04-11 15:10:23.365,0.11230022,0.15558445,0.41344887
136,2023-04-11 15:10:23.523,0.12401812,-1.3736026,-0.14368443
137,2023-04-11 15:10:23.404,-1.5409902,1.7524159,-0.038223255
138,2023-04-11 15:10:23.568,1.0912782,-1.1669413,-0.23742771
139,2023-04-11 15:10:23.442,-2.272827,1.0536025,-0.58150816
140,2023-04-11 15:10:23.603,0.7088483,-0.17837596,0.02729051
141,2023-04-11 15:10:23.483,-1.3391227,-0.13842854,-0.4749817
142,2023-04-11 15:10:23.645,0.234273,-0.015923122,0.124762215
143,2023-04-11 15:10:23.509,-0.607286,-0.84097046,-0.28802776
144,2023-04-11 15:10:23.687,-0.76281625,0.52948916,0.087480396
145,2023-04-11 15:10:23.543,0.73974097,-1.4348553,-0.16978341
146,2023-04-11 15:10:23.722,-0.22539033,-0.2433602,-0.18309678
147,2023-04-11 15:10:23.583,1.0502656,-0.71526927,-0.1612613
148,2023-04-11 15:10:23.764,-0.63604975,0.44213748,-0.16978097
149,2023-04-11 15:10:23.625,-0.2632055,-0.10114428,0.09600007
150,2023-04-11 15:10:23.805,-1.015284,0.47782382,0.34101334
151,2023-04-11 15:10:23.664,-0.6717361,0.14066762,0.08055618
152,2023-04-11 15:10:23.841,-0.12312494,0.5662408,-0.16978097
153,2023-04-11 15:10:23.708,-0.49543485,0.500727,0.052326664
154,2023-04-11 15:10:23.880,0.5346759,-0.08729897,-0.49521926
155,2023-04-11 15:10:23.742,-0.292502,-0.39995408,-0.38389912
156,2023-04-11 15:10:23.923,0.24332602,-1.5371239,-0.40200862
157,2023-04-11 15:10:23.782,-0.95190066,0.74360734,0.19613737
158,2023-04-11 15:10:23.963,-0.89810485,-1.9270108,-0.48829505
159,2023-04-11 15:10:23.823,-0.6941067,0.45438802,0.18282156
160,2023-04-11 15:10:23.863,0.34399354,0.44852906,-0.4297055
161,2023-04-11 15:10:24.005,-1.6544425,-0.25454548,-0.3487454
162,2023-04-11 15:10:24.045,-1.2741432,0.8757001,-0.03981871
163,2023-04-11 15:10:23.904,0.49313056,-0.8217988,-0.42864025
164,2023-04-11 15:10:24.081,-0.38251683,0.32282785,-0.09041877
165,2023-04-11 15:10:23.942,-0.23391245,-2.0111666,-0.46379396
166,2023-04-11 15:10:24.099,0.09685217,-0.15973695,-0.19907574
167,2023-04-11 15:10:23.981,-1.4600319,-1.2265993,-0.44994554
168,2023-04-11 15:10:24.142,0.5703622,-0.885182,-0.33170116
169,2023-04-11 15:10:24.024,-1.549514,0.50924915,-0.17723782
170,2023-04-11 15:10:24.187,0.35784197,-0.60821325,-0.32530957
171,2023-04-11 15:10:24.060,-0.8762669,0.8128495,-0.00892604
172,2023-04-11 15:10:24.222,-0.4437695,0.8820917,0.19560474
173,2023-04-11 15:10:24.127,0.43187785,-0.48251206,-0.2741769
174,2023-04-11 15:10:24.263,-0.9598902,0.4559859,0.5892199
175,2023-04-11 15:10:24.162,0.53733903,-1.0758644,-0.375377
176,2023-04-11 15:10:24.303,-0.023522714,-0.18583593,0.6595274
177,2023-04-11 15:10:24.203,0.035599463,0.29300046,-0.11918091
178,2023-04-11 15:10:24.343,1.0380133,0.8480032,1.1921597
179,2023-04-11 15:10:24.240,-0.86614686,0.88795066,0.46884507
180,2023-04-11 15:10:24.383,0.78394777,-0.80049354,1.8808532
181,2023-04-11 15:10:24.279,-0.69943297,-0.059069455,0.6376895
182,2023-04-11 15:10:24.423,0.06809003,-1.1014308,0.95780146
183,2023-04-11 15:10:24.325,0.6992592,0.2147035,0.768717
184,2023-04-11 15:10:24.459,-0.95349854,1.2053994,-0.31518957
185,2023-04-11 15:10:24.368,1.0220344,0.77503264,1.6853771
186,2023-04-11 15:10:24.482,-1.849386,1.6474842,-0.190021
187,2023-04-11 15:10:24.403,0.39406097,-2.0186236,1.6182655
188,2023-04-11 15:10:24.501,-1.3982465,1.5510777,0.18122366
189,2023-04-11 15:10:24.442,-0.302622,0.4655733,0.14660257
190,2023-04-11 15:10:24.546,-0.42885584,1.1590604,0.46564928
191,2023-04-11 15:10:24.520,-1.6224847,1.4599977,-0.3684528
192,2023-04-11 15:10:24.584,1.4476075,0.39153743,0.107187785
193,2023-04-11 15:10:24.562,0.6289518,0.7089862,0.43528923
194,2023-04-11 15:10:24.621,1.8183196,-0.5512216,-0.59109306
195,2023-04-11 15:10:24.600,1.85081,0.060772795,-0.31465694
196,2023-04-11 15:10:24.663,0.88035417,-1.4881217,-0.25660002
197,2023-04-11 15:10:24.640,1.4369549,-1.2708079,-0.5783099
198,2023-04-11 15:10:24.703,-0.090632595,-0.2753149,0.4960068
199,2023-04-11 15:10:24.683,0.32109034,-1.0295254,0.18761525
200,2023-04-11 15:10:24.739,-0.38890666,0.8954107,0.37137082
201,2023-04-11 15:10:24.738,-0.33511078,0.5167092,0.5151815
202,2023-04-11 15:10:24.777,-0.060272563,0.34733218,0.22116855
203,2023-04-11 15:10:24.758,-0.22485593,0.6360188,0.27070335
204,2023-04-11 15:10:24.819,-0.1913001,-0.5709258,0.08268416
205,2023-04-11 15:10:24.800,-0.0874368,-0.13683051,0.11357683
206,2023-04-11 15:10:24.840,-0.08530627,-0.41859296,0.18015587
207,2023-04-11 15:10:24.882,1.9695889,0.46877235,-0.15433717
208,2023-04-11 15:10:24.865,0.679021,0.2301531,0.20732011
209,2023-04-11 15:10:24.916,2.7264593,-0.67052805,-0.7727232
210,2023-04-11 15:10:24.902,2.6375096,-1.0236632,-1.0326477
211,2023-04-11 15:10:24.957,1.1488026,1.0461457,0.051258866
212,2023-04-11 15:10:24.942,1.9839699,0.107115045,-0.68217576
213,2023-04-11 15:10:25.000,-0.3617424,1.5745169,0.08854312
214,2023-04-11 15:10:24.978,0.33813635,1.4466852,0.40758982
215,2023-04-11 15:10:25.044,-0.81181663,1.009394,-0.96606874
216,2023-04-11 15:10:25.020,-0.84324193,1.3289734,-0.5165271
217,2023-04-11 15:10:25.085,0.83508223,-1.6931819,-0.9692645
218,2023-04-11 15:10:25.061,-0.12259053,0.15398669,-1.0763236
219,2023-04-11 15:10:25.120,1.6233779,-3.301731,-1.2393091
220,2023-04-11 15:10:25.100,1.4747735,-3.4039965,-0.99003714
221,2023-04-11 15:10:25.162,1.2516006,-0.18530004,-0.5777798
222,2023-04-11 15:10:25.138,1.5141883,-1.6708113,-1.1695342
223,2023-04-11 15:10:25.200,0.21456566,1.2512091,0.6541985
224,2023-04-11 15:10:25.178,0.80578744,0.6621178,0.18814535
225,2023-04-11 15:10:25.240,-0.2813159,1.360397,0.25738892
226,2023-04-11 15:10:25.225,-0.23444426,1.4301717,0.6020019
227,2023-04-11 15:10:25.279,0.6891401,0.9140511,-0.18948954
228,2023-04-11 15:10:25.260,0.08992877,1.2581315,-0.0616578
229,2023-04-11 15:10:25.316,1.4555979,0.46983585,0.27283525
230,2023-04-11 15:10:25.300,1.1663785,0.5055222,-0.08349572
231,2023-04-11 15:10:25.357,2.6130075,0.287143,1.2656617
232,2023-04-11 15:10:25.340,1.9221836,0.5172401,0.84701276
233,2023-04-11 15:10:25.403,2.7482963,0.042664796,0.86991596
234,2023-04-11 15:10:25.380,3.0396461,-0.034566876,1.2582049
235,2023-04-11 15:10:25.440,0.7589149,0.1667681,0.6201114
236,2023-04-11 15:10:25.418,1.7884929,0.23334713,0.5508692
237,2023-04-11 15:10:25.480,0.41430178,0.3862126,0.42197227
238,2023-04-11 15:10:25.455,0.2603711,0.10764593,0.6776357
239,2023-04-11 15:10:25.520,1.2984713,1.3209821,-0.1490095
240,2023-04-11 15:10:25.499,0.9330856,0.93269324,0.10186029
241,2023-04-11 15:10:25.544,1.3975409,1.3822348,-0.28589597
242,2023-04-11 15:10:25.560,1.5770379,1.0152513,-0.15380318
243,2023-04-11 15:10:25.600,1.8263099,0.575297,0.21531095
244,2023-04-11 15:10:25.582,1.7751771,0.63335395,0.52690077
245,2023-04-11 15:10:25.638,2.1783798,0.4938043,0.023563355
246,2023-04-11 15:10:25.620,1.8284404,0.64240867,0.3649806
247,2023-04-11 15:10:25.675,3.25696,-0.06705744,-0.17244531
248,2023-04-11 15:10:25.659,2.6982288,0.22056396,-0.10693154
249,2023-04-11 15:10:25.699,3.985601,-0.21406394,-0.26459068
250,2023-04-11 15:10:25.718,3.7107627,-0.19062811,-0.26778647
251,2023-04-11 15:10:25.736,4.0596366,-0.24442397,-0.088822044
252,2023-04-11 15:10:25.755,3.9062388,-0.24069555,0.16417825
253,2023-04-11 15:10:25.775,3.5419183,-0.24655451,0.33941427
254,2023-04-11 15:10:25.797,3.0843873,-0.2630661,0.34367535
255,2023-04-11 15:10:25.836,2.0729187,-0.08516694,-0.055798847
256,2023-04-11 15:10:25.815,2.6103444,-0.24442397,0.18068986
257,2023-04-11 15:10:25.875,1.0444057,0.20937869,-0.11225786
258,2023-04-11 15:10:25.855,1.5056653,0.09113433,-0.18309796
259,2023-04-11 15:10:25.918,0.60019046,0.17795338,0.061912872
260,2023-04-11 15:10:25.898,0.71523905,0.24879347,0.0326181
261,2023-04-11 15:10:25.956,1.1434753,-0.41912735,-0.39987925
262,2023-04-11 15:10:25.942,0.77808964,-0.11392908,-0.11385576
263,2023-04-11 15:10:25.994,1.4737073,-0.061731115,-0.67045647
264,2023-04-11 15:10:25.977,1.4449452,-0.45374843,-0.61772585
265,2023-04-11 15:10:26.016,1.2984713,0.400061,-0.65660805
266,2023-04-11 15:10:26.053,0.86118025,0.30099142,-0.72638285
267,2023-04-11 15:10:26.090,0.5293504,-0.59116757,-0.68377227
268,2023-04-11 15:10:26.131,0.88568133,-0.4281821,-1.1018885
269,2023-04-11 15:10:26.174,1.329364,0.08793854,-0.5064057
270,2023-04-11 15:10:26.216,1.5589285,0.42083368,0.6520694
271,2023-04-11 15:10:26.259,1.9498805,0.5108485,0.2424752
272,2023-04-11 15:10:26.303,2.0351017,0.8778321,-0.36845395
273,2023-04-11 15:10:26.336,1.0886142,0.80006784,-0.15593371
274,2023-04-11 15:10:26.378,0.5511883,0.048523754,0.2030604
275,2023-04-11 15:10:26.418,0.540003,-0.15760492,0.04646654
276,2023-04-11 15:10:26.481,0.33653748,0.28021878,-0.31838652
277,2023-04-11 15:10:26.518,0.38873544,0.6775624,0.016639136
278,2023-04-11 15:10:26.535,0.59965783,0.7175098,0.051260233
279,2023-04-11 15:10:26.577,0.84094024,0.83362365,0.0656413
280,2023-04-11 15:10:26.637,0.81164545,1.0834281,0.24140993
281,2023-04-11 15:10:26.699,0.8942035,0.9236385,0.72503996
282,2023-04-11 15:10:26.736,1.0721027,1.7284458,0.70266944
283,2023-04-11 15:10:26.775,1.2633176,1.2378916,0.54767346
284,2023-04-11 15:10:26.813,0.84307075,0.66690975,0.9018739
285,2023-04-11 15:10:26.851,0.92669404,0.48155376,0.8416864
286,2023-04-11 15:10:26.912,0.99487096,0.3222967,0.76392215
287,2023-04-11 15:10:26.933,1.3053955,0.5598507,0.5125197
288,2023-04-11 15:10:26.976,1.2255007,0.7244341,0.35273007
289,2023-04-11 15:10:27.014,0.90006244,0.8032636,0.18761407
290,2023-04-11 15:10:27.056,0.7322833,0.4442695,0.27496576
291,2023-04-11 15:10:27.094,0.65238845,0.32442725,0.40386277
292,2023-04-11 15:10:26.035,1.08169,0.5305559,-0.6821744
293,2023-04-11 15:10:26.072,0.6454642,-0.1192554,-0.69868594
294,2023-04-11 15:10:27.136,0.6188326,0.4906085,0.33888164
295,2023-04-11 15:10:27.175,0.57302624,0.58115596,0.2872163
296,2023-04-11 15:10:26.112,0.62682205,-0.7536204,-0.84835565
297,2023-04-11 15:10:27.232,0.5336114,0.8309605,0.3367511
298,2023-04-11 15:10:26.153,1.1429427,-0.064926915,-1.075257
299,2023-04-11 15:10:27.250,0.28806797,0.43681264,0.6653852
300,2023-04-11 15:10:26.198,1.4598589,0.2589135,0.25419313
301,2023-04-11 15:10:26.238,1.7091308,0.44000843,0.58975136
302,2023-04-11 15:10:27.295,0.17515129,0.45332676,0.5423452
303,2023-04-11 15:10:26.278,2.1421607,0.7132488,-0.16179267
304,2023-04-11 15:10:27.340,0.032938488,0.4277604,0.17589422
305,2023-04-11 15:10:26.315,1.6089959,0.8836911,-0.32264757
