,p_gyroscope_time,p_gyroscope_x,p_gyroscope_y,p_gyroscope_z
0,2023-04-29 13:23:14.182,-0.09742078,-0.11293246,-0.06745262
1,2023-04-29 13:23:14.200,-0.27905226,-0.14382574,-0.046151128
2,2023-04-29 13:23:14.217,-0.37652397,-0.23597112,-0.0024752836
3,2023-04-29 13:23:14.238,-0.2811828,-0.23863427,0.043331087
4,2023-04-29 13:23:14.258,-0.12032786,-0.18750158,0.055048995
5,2023-04-29 13:23:14.288,-0.018062467,-0.18537106,0.0369395
6,2023-04-29 13:23:14.299,0.025613377,-0.18430579,0.033211075
7,2023-04-29 13:23:14.317,-0.0063445587,-0.16832682,0.060375318
8,2023-04-29 13:23:14.334,-0.07718465,-0.18643633,0.09339852
9,2023-04-29 13:23:14.364,-0.11180574,-0.20188266,0.108844854
10,2023-04-29 13:23:14.388,-0.11127311,-0.15394576,0.09925748
11,2023-04-29 13:23:14.400,-0.13524155,-0.022385592,0.08168061
12,2023-04-29 13:23:14.423,-0.19010268,0.18534097,0.06357111
13,2023-04-29 13:23:14.442,-0.20661427,0.31530324,0.020960536
14,2023-04-29 13:23:14.472,-0.16773212,0.3280864,-0.017388985
15,2023-04-29 13:23:14.481,-0.14642684,0.2886716,-0.027509
16,2023-04-29 13:23:14.502,-0.12884997,0.23434314,-0.010997399
17,2023-04-29 13:23:14.516,-0.073988855,0.2306147,0.016699478
18,2023-04-29 13:23:14.546,-0.014334043,0.2652358,0.04226582
19,2023-04-29 13:23:14.563,0.013895466,0.25724632,0.09020273
20,2023-04-29 13:23:14.614,0.0048407186,0.1709599,0.16317333
21,2023-04-29 13:23:14.615,0.047451295,0.03993238,0.20045759
22,2023-04-29 13:23:14.640,0.16622828,-0.035168763,0.22016498
23,2023-04-29 13:23:14.641,0.2519821,-0.06659407,0.24413343
24,2023-04-29 13:23:14.668,0.2791463,-0.13370574,0.22442605
25,2023-04-29 13:23:14.681,0.19499043,-0.22531848,0.19193548
26,2023-04-29 13:23:14.705,0.13054793,-0.29029864,0.1418739
27,2023-04-29 13:23:14.720,0.18647431,-0.23650281,0.020966388
28,2023-04-29 13:23:14.741,0.28820705,0.058575448,-0.052536856
29,2023-04-29 13:23:14.768,0.32016498,0.28867257,-0.04614527
30,2023-04-29 13:23:14.781,0.16463639,0.22741985,-0.0317642
31,2023-04-29 13:23:14.812,-0.003675399,0.1256871,-0.028568408
32,2023-04-29 13:23:14.835,-0.040427025,-0.0026772604,-0.029101042
33,2023-04-29 13:23:14.847,0.0064446134,-0.16140167,-0.091951646
34,2023-04-29 13:23:14.871,0.1300153,-0.19549014,-0.15373698
35,2023-04-29 13:23:14.903,0.2392049,-0.15714061,-0.15746541
36,2023-04-29 13:23:14.904,0.25731438,-0.14648797,-0.09514744
37,2023-04-29 13:23:14.922,0.13800478,-0.13849849,0.0065853177
38,2023-04-29 13:23:14.947,-0.12671344,-0.048483633,0.10458965
39,2023-04-29 13:23:14.965,-0.33923373,0.07242388,0.15252654
40,2023-04-29 13:23:15.005,-0.36266953,0.11503446,0.16104867
41,2023-04-29 13:23:15.013,-0.35840848,0.10491445,0.14293917
42,2023-04-29 13:23:15.034,-0.34242952,0.07189125,0.112046495
43,2023-04-29 13:23:15.048,-0.28863364,0.015964868,0.05931591
44,2023-04-29 13:23:15.064,-0.24442516,-0.013862536,-0.0067304876
45,2023-04-29 13:23:15.097,-0.23483779,-0.0069383187,-0.06265687
46,2023-04-29 13:23:15.113,-0.24495779,0.018628027,-0.111659035
47,2023-04-29 13:23:15.130,-0.25720835,0.035139628,-0.14308435
48,2023-04-29 13:23:15.151,-0.24495779,0.020225927,-0.16012858
49,2023-04-29 13:23:15.167,-0.2103367,-0.031972032,-0.16279173
50,2023-04-29 13:23:15.186,-0.17305245,-0.124117404,-0.13136643
51,2023-04-29 13:23:15.207,-0.14482294,-0.22744806,-0.08822322
52,2023-04-29 13:23:15.230,-0.1309745,-0.30148393,-0.07330952
53,2023-04-29 13:23:15.260,-0.12990923,-0.29828814,-0.089821115
54,2023-04-29 13:23:15.279,-0.14961663,-0.2396986,-0.1324317
55,2023-04-29 13:23:15.297,-0.15334505,-0.14329217,-0.19474967
56,2023-04-29 13:23:15.317,-0.1608019,-0.010134111,-0.28103608
57,2023-04-29 13:23:15.327,-0.26839364,0.024486985,-0.29861292
58,2023-04-29 13:23:15.363,-0.46653283,-0.033037297,-0.1920865
59,2023-04-29 13:23:15.377,-0.6438993,-0.0990837,-0.10153902
60,2023-04-29 13:23:15.394,-0.70515203,-0.14169428,-0.052536856
61,2023-04-29 13:23:15.412,-0.54163396,-0.10121422,-0.04294948
62,2023-04-29 13:23:15.434,-0.24602306,-0.08416999,-0.07330952
63,2023-04-29 13:23:15.451,0.008575142,-0.1603364,-0.10952851
64,2023-04-29 13:23:15.469,0.17049535,-0.21413226,-0.13189906
65,2023-04-29 13:23:15.494,0.24879228,-0.1832396,-0.12390958
66,2023-04-29 13:23:15.510,0.22162804,-0.121454254,-0.052004226
67,2023-04-29 13:23:15.551,0.14226584,-0.12891111,0.034282196
68,2023-04-29 13:23:15.552,0.09858999,-0.15554272,0.07689277
69,2023-04-29 13:23:15.577,0.101253144,-0.10707318,0.06783802
70,2023-04-29 13:23:15.594,0.13747215,-0.023982551,0.04067378
71,2023-04-29 13:23:15.626,0.1880722,0.025019616,0.023096917
72,2023-04-29 13:23:15.649,0.22642173,0.03087857,0.015640065
73,2023-04-29 13:23:15.664,0.25571647,0.03354173,-0.0067304876
74,2023-04-29 13:23:15.685,0.28873968,0.06816282,-0.049341064
75,2023-04-29 13:23:15.695,0.283946,0.13633975,-0.08502743
76,2023-04-29 13:23:15.715,0.23281574,0.20824549,-0.087688215
77,2023-04-29 13:23:15.734,0.18594411,0.2503234,-0.07543767
78,2023-04-29 13:23:15.760,0.16676936,0.24925818,-0.08182926
79,2023-04-29 13:23:15.783,0.1593125,0.2050497,-0.09301453
80,2023-04-29 13:23:15.809,0.15398617,0.19333178,-0.09461243
81,2023-04-29 13:23:15.834,0.15984513,0.200256,-0.09461243
82,2023-04-29 13:23:15.844,0.1625083,0.19173388,-0.0743724
83,2023-04-29 13:23:15.859,0.14226827,0.16243911,-0.026435507
84,2023-04-29 13:23:15.886,0.13427879,0.093729556,0.018838232
85,2023-04-29 13:23:15.900,0.1129735,0.014899984,0.052926697
86,2023-04-29 13:23:15.919,0.040535506,-0.08416961,0.06943829
87,2023-04-29 13:23:15.941,-0.013260347,-0.13423704,0.06943829
88,2023-04-29 13:23:15.960,-0.0137929795,-0.08310434,0.05878565
89,2023-04-29 13:23:15.982,0.0059144124,0.0234221,0.04919827
90,2023-04-29 13:23:16.001,0.022958644,0.057510562,0.038012993
91,2023-04-29 13:23:16.025,0.025621805,0.012769455,0.017240336
92,2023-04-29 13:23:16.043,0.028817598,0.005312604,-0.0051302183
93,2023-04-29 13:23:16.079,0.006979677,0.04792318,-0.024837611
94,2023-04-29 13:23:16.081,-0.036163535,0.11237168,-0.038153414
95,2023-04-29 13:23:16.100,-0.09741624,0.16723281,-0.0296313
96,2023-04-29 13:23:16.132,-0.17731108,0.16030858,0.01138138
97,2023-04-29 13:23:16.147,-0.23430271,0.13953593,0.05612249
98,2023-04-29 13:23:16.163,-0.24974906,0.102784306,0.06997093
99,2023-04-29 13:23:16.180,-0.24175957,0.01649788,0.064644605
100,2023-04-29 13:23:16.214,-0.21619323,-0.06392959,0.049730904
101,2023-04-29 13:23:16.224,-0.16932158,-0.12678018,0.043871947
102,2023-04-29 13:23:16.243,-0.120319426,-0.16726023,0.025762452
103,2023-04-29 13:23:16.262,-0.08303516,-0.17791288,-0.0014017925
104,2023-04-29 13:23:16.284,-0.060664613,-0.16299918,-0.016315496
105,2023-04-29 13:23:16.301,-0.054273028,-0.12624756,-0.01525023
106,2023-04-29 13:23:16.333,-0.05906672,-0.11293174,-0.008326012
107,2023-04-29 13:23:16.342,-0.064393036,-0.114529654,-0.0067281146
108,2023-04-29 13:23:16.382,-0.07983937,-0.09801805,-0.010989172
109,2023-04-29 13:23:16.397,-0.10487309,-0.08044119,-0.012054438
110,2023-04-29 13:23:16.409,-0.10806888,-0.08097382,-0.014717599
111,2023-04-29 13:23:16.424,-0.0984815,-0.072451696,-0.0296313
112,2023-04-29 13:23:16.447,-0.096350975,-0.020786375,-0.04241447
113,2023-04-29 13:23:16.464,-0.101144664,0.041531596,-0.03495762
114,2023-04-29 13:23:16.485,-0.116058365,0.053782135,-0.014184967
115,2023-04-29 13:23:16.507,-0.12564574,-0.006937938,-0.013652334
116,2023-04-29 13:23:16.526,-0.124047846,-0.049548514,-0.03229446
117,2023-04-29 13:23:16.551,-0.13842891,-0.014394788,-0.033892356
118,2023-04-29 13:23:16.579,-0.16506054,0.007975765,-0.028033404
119,2023-04-29 13:23:16.590,-0.20021425,0.0026494428,-0.018446025
120,2023-04-29 13:23:16.626,-0.25081432,-0.0026768795,0.012979277
121,2023-04-29 13:23:16.641,-0.27957645,-0.02398217,0.047067743
122,2023-04-29 13:23:16.679,-0.2865007,-0.024514802,0.072634086
123,2023-04-29 13:23:16.681,-0.28330487,-0.019188479,0.08808042
124,2023-04-29 13:23:16.696,-0.26785854,-0.03676534,0.103526756
125,2023-04-29 13:23:16.707,-0.23110692,-0.05966853,0.11630993
126,2023-04-29 13:23:16.729,-0.18530056,-0.06606011,0.12323415
127,2023-04-29 13:23:16.758,-0.15920158,-0.08470224,0.12323415
128,2023-04-29 13:23:16.778,-0.14375524,-0.103344366,0.10991835
129,2023-04-29 13:23:16.791,-0.14002681,-0.090561196,0.08914569
130,2023-04-29 13:23:16.826,-0.15014683,-0.06073379,0.078493044
131,2023-04-29 13:23:16.850,-0.15920158,-0.06073379,0.08222147
132,2023-04-29 13:23:16.853,-0.17411527,-0.07191907,0.08914569
133,2023-04-29 13:23:16.872,-0.1911595,-0.06020116,0.084351994
134,2023-04-29 13:23:16.896,-0.20500794,-0.03143902,0.063579336
135,2023-04-29 13:23:16.911,-0.21992165,-0.0021442473,0.05878565
136,2023-04-29 13:23:16.944,-0.2470859,0.015432617,0.063579336
137,2023-04-29 13:23:16.959,-0.2737175,0.028748423,0.06730776
138,2023-04-29 13:23:16.975,-0.30034912,0.055380035,0.07476462
139,2023-04-29 13:23:16.997,-0.31579545,0.08520743,0.09127621
140,2023-04-29 13:23:17.027,-0.30887124,0.09692535,0.11311414
141,2023-04-29 13:23:17.038,-0.28117436,0.09958851,0.12696257
142,2023-04-29 13:23:17.055,-0.2406943,0.12835065,0.13388678
143,2023-04-29 13:23:17.079,-0.19542056,0.164037,0.15945314
144,2023-04-29 13:23:17.109,-0.15067945,0.14752541,0.20579214
145,2023-04-29 13:23:17.122,-0.14375524,0.03034632,0.23082586
146,2023-04-29 13:23:17.138,-0.20181215,-0.19229394,0.17223631
147,2023-04-29 13:23:17.159,-0.2987512,-0.3563447,0.063579336
148,2023-04-29 13:23:17.178,-0.35201445,-0.2887004,-0.044012368
149,2023-04-29 13:23:17.195,-0.3312418,-0.026112698,-0.09727559
150,2023-04-29 13:23:17.215,-0.2721196,0.22422445,-0.04667553
151,2023-04-29 13:23:17.242,-0.23269899,0.24233486,0.037486054
152,2023-04-29 13:23:17.259,-0.22364424,0.07455571,0.067313455
153,2023-04-29 13:23:17.288,-0.2593306,-0.11932243,0.07317241
154,2023-04-29 13:23:17.304,-0.2742443,-0.2412952,0.08222716
155,2023-04-29 13:23:17.321,-0.26039585,-0.27485102,0.1109893
156,2023-04-29 13:23:17.342,-0.25560218,-0.25567627,0.15253462
157,2023-04-29 13:23:17.357,-0.27850536,-0.29083002,0.19567783
158,2023-04-29 13:23:17.387,-0.32324645,-0.35101745,0.20899364
159,2023-04-29 13:23:17.419,-0.3653244,-0.3600722,0.20100416
160,2023-04-29 13:23:17.419,-0.3653244,-0.3600722,0.20100416
161,2023-04-29 13:23:17.419,-0.3653244,-0.3600722,0.20100416
162,2023-04-29 13:23:17.419,-0.3653244,-0.3600722,0.20100416
163,2023-04-29 13:23:17.419,-0.3653244,-0.3600722,0.20100416
164,2023-04-29 13:23:17.419,-0.3653244,-0.3600722,0.20100416
165,2023-04-29 13:23:17.419,-0.3653244,-0.3600722,0.20100416
166,2023-04-29 13:23:17.419,-0.3653244,-0.3600722,0.20100416
167,2023-04-29 13:23:17.419,-0.3653244,-0.3600722,0.20100416
168,2023-04-29 13:23:17.419,-0.3653244,-0.3600722,0.20100416
169,2023-04-29 13:23:17.419,-0.3653244,-0.3600722,0.20100416
170,2023-04-29 13:23:17.419,-0.3653244,-0.3600722,0.20100416
171,2023-04-29 13:23:17.420,-0.38609707,-0.3222553,0.22337471
172,2023-04-29 13:23:17.446,-0.39515182,-0.31320056,0.27237687
173,2023-04-29 13:23:17.458,-0.38396654,-0.34249532,0.32137904
174,2023-04-29 13:23:17.478,-0.371716,-0.34462586,0.3325643
175,2023-04-29 13:23:17.498,-0.3850318,-0.31692898,0.2899537
176,2023-04-29 13:23:17.526,-0.41698974,-0.25833943,0.22230944
177,2023-04-29 13:23:17.539,-0.4478824,-0.17098776,0.17810097
178,2023-04-29 13:23:17.558,-0.45800242,-0.13796455,0.14134935
179,2023-04-29 13:23:17.583,-0.47877508,-0.20614147,0.081161894
180,2023-04-29 13:23:17.612,-0.49155825,-0.23916468,0.068378724
181,2023-04-29 13:23:17.621,-0.46226346,-0.15820457,0.0960756
182,2023-04-29 13:23:17.643,-0.39941287,-0.022383356,0.12430511
183,2023-04-29 13:23:17.660,-0.31685486,0.04259777,0.11844615
184,2023-04-29 13:23:17.681,-0.24122111,0.053250417,0.11525036
185,2023-04-29 13:23:17.708,-0.21299161,0.14646105,0.12643564
186,2023-04-29 13:23:17.730,-0.28223377,0.29346755,0.11311983
187,2023-04-29 13:23:17.752,-0.41539183,0.3456655,0.11152194
188,2023-04-29 13:23:17.781,-0.5916931,0.21037692,0.15999147
189,2023-04-29 13:23:17.801,-0.742428,0.028216705,0.2164505
190,2023-04-29 13:23:17.817,-0.73284066,-0.084168695,0.20473258
191,2023-04-29 13:23:17.841,-0.63377106,-0.14169298,0.08808611
192,2023-04-29 13:23:17.855,-0.5054067,-0.18803199,-0.03495193
193,2023-04-29 13:23:17.877,-0.3120612,-0.1667267,-0.08555199
194,2023-04-29 13:23:17.891,-0.19008842,-0.10653925,-0.025897179
195,2023-04-29 13:23:17.921,-0.16292417,-0.10281082,0.04174711
196,2023-04-29 13:23:17.939,-0.115519896,-0.21359833,0.042279743
197,2023-04-29 13:23:17.958,-0.07131142,-0.244491,-0.011516109
198,2023-04-29 13:23:17.971,-0.016982935,-0.11133294,-0.083954096
199,2023-04-29 13:23:17.985,0.073564544,0.15498318,-0.17077313
200,2023-04-29 13:23:18.018,0.15026358,0.3866782,-0.24374376
201,2023-04-29 13:23:18.034,0.17263412,0.44899616,-0.27676696
202,2023-04-29 13:23:18.051,0.16357937,0.2876086,-0.28635436
203,2023-04-29 13:23:18.073,0.16198148,0.08627362,-0.28528908
204,2023-04-29 13:23:18.101,0.18914573,0.039934613,-0.28741962
205,2023-04-29 13:23:18.117,0.20405944,0.07295781,-0.28475645
206,2023-04-29 13:23:18.141,0.24560474,0.06922939,-0.2677122
207,2023-04-29 13:23:18.158,0.3105859,0.12835155,-0.24960272
208,2023-04-29 13:23:18.168,0.35000068,0.25511804,-0.2048616
209,2023-04-29 13:23:18.187,0.3606533,0.27482542,-0.111650966
210,2023-04-29 13:23:18.208,0.33615223,0.12515578,-0.0072550518
211,2023-04-29 13:23:18.234,0.1987331,-0.16938986,0.014050238
212,2023-04-29 13:23:18.251,-0.008459038,-0.4373036,-0.16011877
213,2023-04-29 13:23:18.270,-0.1384213,-0.3547456,-0.33322424
214,2023-04-29 13:23:18.290,0.025629425,0.30944678,-0.20485987
215,2023-04-29 13:23:18.325,0.13854745,0.5576534,0.012454081
216,2023-04-29 13:23:18.338,0.093273714,0.1704298,0.06358677
217,2023-04-29 13:23:18.351,0.1326885,-0.17897695,0.042281486
218,2023-04-29 13:23:18.371,0.14547168,-0.3797793,-0.04080914
219,2023-04-29 13:23:18.396,0.14813484,-0.40694356,-0.10152921
220,2023-04-29 13:23:18.417,0.12310112,-0.2839055,-0.10099658
221,2023-04-29 13:23:18.433,0.046402078,-0.11719161,-0.05039652
222,2023-04-29 13:23:18.453,-0.08036439,-0.06392839,0.017247772
223,2023-04-29 13:23:18.476,-0.20819612,-0.13796426,0.064119406
224,2023-04-29 13:23:18.504,-0.25666565,-0.18749906,0.099805765
225,2023-04-29 13:23:18.517,-0.21565297,-0.20560856,0.11205631
226,2023-04-29 13:23:18.533,-0.1448129,-0.18004222,0.12430685
227,2023-04-29 13:23:18.555,-0.08196229,-0.14755166,0.1498732
228,2023-04-29 13:23:18.582,-0.024970638,-0.18004222,0.1498732
229,2023-04-29 13:23:18.604,-0.006861141,-0.23490334,0.101936296
230,2023-04-29 13:23:18.625,-0.023905372,-0.20507593,0.055597294
231,2023-04-29 13:23:18.642,-0.03988434,-0.13104005,0.044944648
232,2023-04-29 13:23:18.656,-0.06545069,-0.045286264,0.070511
233,2023-04-29 13:23:18.678,-0.10912653,0.06709914,0.09714261
234,2023-04-29 13:23:18.704,-0.14428025,0.13634133,0.116849996
235,2023-04-29 13:23:18.731,-0.15280238,0.14592871,0.14294897
236,2023-04-29 13:23:18.748,-0.11178969,0.12994973,0.17064585
237,2023-04-29 13:23:18.771,-0.07609895,0.15178835,0.19089015
238,2023-04-29 13:23:18.784,-0.08249054,0.22688949,0.20420596
239,2023-04-29 13:23:18.807,-0.119774796,0.33714435,0.19887963
240,2023-04-29 13:23:18.818,-0.20659384,0.43834448,0.19568384
241,2023-04-29 13:23:18.838,-0.3232403,0.43834448,0.2281744
242,2023-04-29 13:23:18.868,-0.40633094,0.30518642,0.27504605
243,2023-04-29 13:23:18.891,-0.4052657,0.14007044,0.3043408
244,2023-04-29 13:23:18.905,-0.3195119,0.039935578,0.26758918
245,2023-04-29 13:23:18.918,-0.2140507,-0.076178245,0.14668167
246,2023-04-29 13:23:18.949,-0.108589515,-0.14222464,-0.006716407
247,2023-04-29 13:23:18.964,-0.013248351,-0.04262242,-0.08980703
248,2023-04-29 13:23:18.981,0.049069617,0.14965782,-0.06850175
249,2023-04-29 13:23:19.000,0.042678032,0.16297363,0.009795192
250,2023-04-29 13:23:19.023,0.024035905,0.07242615,0.07371106
251,2023-04-29 13:23:19.048,0.028829595,0.053784013,0.088092126
252,2023-04-29 13:23:19.088,0.062385425,0.12675463,0.046014182
253,2023-04-29 13:23:19.103,0.11564865,0.23914003,-0.020564847
254,2023-04-29 13:23:19.103,0.17743398,0.28920746,-0.08075229
255,2023-04-29 13:23:19.131,0.21365298,0.25298846,-0.14253762
256,2023-04-29 13:23:19.147,0.21205509,0.18055049,-0.1867461
257,2023-04-29 13:23:19.171,0.21418561,0.1246241,-0.2016598
258,2023-04-29 13:23:19.185,0.20619613,0.09373143,-0.18727873
259,2023-04-29 13:23:19.211,0.19873928,0.067099825,-0.16650608
260,2023-04-29 13:23:19.236,0.21471824,0.08041563,-0.13188498
261,2023-04-29 13:23:19.255,0.26105723,0.1113083,-0.096198626
262,2023-04-29 13:23:19.269,0.33668438,0.13580833,-0.08555247
263,2023-04-29 13:23:19.285,0.37130547,0.101187244,-0.09780301
264,2023-04-29 13:23:19.319,0.3537286,-0.024513964,-0.10153143
265,2023-04-29 13:23:19.330,0.2940738,-0.137432,-0.10312933
266,2023-04-29 13:23:19.351,0.22003792,-0.13902989,-0.13135883
267,2023-04-29 13:23:19.380,0.17689471,0.08254512,-0.13881569
268,2023-04-29 13:23:19.402,0.112978846,0.24340005,-0.08075878
269,2023-04-29 13:23:19.414,0.09167355,0.15072204,-0.030158713
270,2023-04-29 13:23:19.431,0.12309886,-0.060200322,-0.050398737
271,2023-04-29 13:23:19.455,0.19713473,-0.14808464,-0.10579249
272,2023-04-29 13:23:19.467,0.25998533,-0.12198566,-0.14946833
273,2023-04-29 13:23:19.496,0.27649692,-0.064994015,-0.1723715
274,2023-04-29 13:23:19.518,0.25678954,0.011172397,-0.15372938
275,2023-04-29 13:23:19.532,0.19873263,0.045260858,-0.10685775
276,2023-04-29 13:23:19.547,0.123631485,0.046326123,-0.07117139
277,2023-04-29 13:23:19.589,0.06237878,0.06922931,-0.045605045
278,2023-04-29 13:23:19.589,0.027225051,0.09106723,-0.016310275
279,2023-04-29 13:23:19.608,0.015507142,0.053782973,0.01831082
280,2023-04-29 13:23:19.636,0.02456189,-0.012796054,0.05399718
281,2023-04-29 13:23:19.649,0.050128236,-0.077777185,0.090216175
282,2023-04-29 13:23:19.669,0.07569459,-0.11133301,0.10246672
283,2023-04-29 13:23:19.690,0.096999876,-0.09695195,0.094477236
284,2023-04-29 13:23:19.713,0.11244621,-0.046884514,0.077433005
285,2023-04-29 13:23:19.730,0.11031568,0.0005197518,0.060388766
286,2023-04-29 13:23:19.772,0.10925042,0.012770293,0.055595078
287,2023-04-29 13:23:19.801,0.11032216,0.0106407795,0.05453614
288,2023-04-29 13:23:19.801,0.105528474,-0.0127950385,0.05134035
