,p_gyroscope_time,p_gyroscope_x,p_gyroscope_y,p_gyroscope_z
0,p_gyroscope_time,p_gyroscope_x,p_gyroscope_y,p_gyroscope_z
1,2023-05-12 15:32:45.926000,-0.0100335255,0.0023827846,-0.0039641974
2,2023-05-12 15:32:45.944000,-0.004174572,0.0023827846,-0.005029462
3,2023-05-12 15:32:45.960000,-0.0031093075,0.007709107,-0.0013010361
4,2023-05-12 15:32:45.979000,-0.004174572,0.0029154168,0.001362125
5,2023-05-12 15:32:45.996000,-0.004707204,0.005578578,-0.002898933
6,2023-05-12 15:32:46.014000,-0.008435629,0.0071764747,-0.007692623
7,2023-05-12 15:32:46.034000,-0.01322932,-0.00081300864,-0.0060947263
8,2023-05-12 15:32:46.054000,-0.014827216,-0.0018782731,-0.0023663007
9,2023-05-12 15:32:46.076000,-0.006305101,0.005578578,-0.0007684039
10,2023-05-12 15:32:46.094000,8.6485874e-05,0.00611121,-0.0039641974
11,2023-05-12 15:32:46.126000,0.0011517503,0.0018501525,-0.005562094
12,2023-05-12 15:32:46.142000,0.004880176,0.010904901,-0.0039641974
13,2023-05-12 15:32:46.159000,0.0016843826,0.008241739,-0.0013010361
14,2023-05-12 15:32:46.178000,-0.006837733,-0.0002803764,0.001362125
15,2023-05-12 15:32:46.201000,-0.0009787786,0.003448049,-0.00023577164
16,2023-05-12 15:32:46.225000,0.008608602,0.009307004,-0.0044968296
17,2023-05-12 15:32:46.242000,0.0038149115,0.009307004,-0.0039641974
18,2023-05-12 15:32:46.258000,-0.004707204,0.007709107,0.00029686058
19,2023-05-12 15:32:46.281000,-0.0057724686,0.009307004,0.001362125
20,2023-05-12 15:32:46.308000,-0.0073703653,0.011970164,0.00029686058
21,2023-05-12 15:32:46.326000,-0.0100335255,0.0050459458,0.0008294928
22,2023-05-12 15:32:46.343000,8.6485874e-05,0.003448049,0.0024273894
23,2023-05-12 15:32:46.360000,0.012337027,0.012502797,0.006688447
24,2023-05-12 15:32:46.375000,0.002749647,0.008241739,0.0109495055
25,2023-05-12 15:32:46.410000,-0.002044043,0.008241739,0.0109495055
26,2023-05-12 15:32:46.426000,0.0150008155,0.02368513,0.009885702
27,2023-05-12 15:32:46.448000,0.013402919,0.025815658,0.005624645
28,2023-05-12 15:32:46.458000,-0.01269606,0.0039777355,0.0045593805
29,2023-05-12 15:32:46.480000,-0.022283439,-0.0040117474,0.0061572767
30,2023-05-12 15:32:46.494000,-0.007369738,0.017826173,0.005624645
31,2023-05-12 15:32:46.513000,-0.006837106,0.021021968,0.0040267482
32,2023-05-12 15:32:46.533000,-0.037729774,-0.002413851,0.005624645
33,2023-05-12 15:32:46.553000,-0.044653993,-0.0072075417,0.0093530705
34,2023-05-12 15:32:46.582000,-0.018555015,0.025283026,0.008287805
35,2023-05-12 15:32:46.594000,0.019794505,0.048186213,0.0045593805
36,2023-05-12 15:32:46.630000,0.033110313,0.034870405,0.00083095476
37,2023-05-12 15:32:46.642000,-0.0015107836,0.0029124713,0.015212025
38,2023-05-12 15:32:46.659000,-0.018555015,0.005043,0.039180476
39,2023-05-12 15:32:46.678000,-0.035066612,0.030076716,0.04983312
40,2023-05-12 15:32:46.693000,-0.110167764,0.01463038,0.040778372
41,2023-05-12 15:32:46.730000,-0.15011518,-0.0114686,0.03758258
42,2023-05-12 15:32:46.744000,-0.06702455,0.046055682,0.046104696
43,2023-05-12 15:32:46.759000,0.08850406,0.16003898,0.05462681
44,2023-05-12 15:32:46.777000,0.17905155,0.21916115,0.086052105
45,2023-05-12 15:32:46.809000,0.065068245,0.07375256,0.1270648
46,2023-05-12 15:32:46.825000,-0.064361386,-0.11000556,0.13665217
47,2023-05-12 15:32:46.841000,-0.007902371,-0.07858026,0.1520985
48,2023-05-12 15:32:46.860000,0.07039457,-0.00028332206,0.16754484
49,2023-05-12 15:32:46.877000,0.12419041,0.047120947,0.17393643
50,2023-05-12 15:32:46.897000,0.2743927,0.12808104,0.16541432
51,2023-05-12 15:32:46.918000,0.3143401,0.043925155,0.12759744
52,2023-05-12 15:32:46.945000,0.17958418,-0.08763501,0.053028915
53,2023-05-12 15:32:46.967000,0.101819865,-0.04502443,0.03811521
54,2023-05-12 15:32:46.976000,0.037904,0.051382005,0.06900787
55,2023-05-12 15:32:46.992000,-0.07394877,0.021021968,0.08179105
56,2023-05-12 15:32:47.013000,-0.085134044,0.09931891,0.055159442
57,2023-05-12 15:32:47.031000,0.0064787,0.27029386,0.013081496
58,2023-05-12 15:32:47.053000,0.024055563,0.3933319,-0.015148013
59,2023-05-12 15:32:47.086000,-0.0249466,0.47216147,-0.042312253
60,2023-05-12 15:32:47.095000,-0.0925909,0.49826044,-0.042844888
61,2023-05-12 15:32:47.125000,-0.20710681,0.41037613,-0.011419587
62,2023-05-12 15:32:47.143000,-0.32322067,0.40718034,0.029060464
63,2023-05-12 15:32:47.164000,-0.42708394,0.31183916,0.0594205
64,2023-05-12 15:32:47.184000,-0.55225253,0.17761584,0.023734141
65,2023-05-12 15:32:47.195000,-0.6428,0.034870405,-0.01461538
66,2023-05-12 15:32:47.214000,-0.7163032,-0.19416144,0.02107098
67,2023-05-12 15:32:47.231000,-0.7141727,-0.41041014,0.055692073
68,2023-05-12 15:32:47.258000,-0.52295774,-0.30441633,0.080193155
69,2023-05-12 15:32:47.277000,-0.2891322,0.019956704,0.06474682
70,2023-05-12 15:32:47.292000,-0.3306775,0.1669632,0.0024288516
71,2023-05-12 15:32:47.310000,-0.61084205,0.08493783,-0.010886955
72,2023-05-12 15:32:47.347000,-0.7993939,-0.1254519,0.033321522
73,2023-05-12 15:32:47.363000,-0.7344127,-0.28524157,0.048235223
74,2023-05-12 15:32:47.375000,-0.49845666,-0.23836993,0.014679392
75,2023-05-12 15:32:47.393000,-0.27368587,-0.20481409,-0.013017484
76,2023-05-12 15:32:47.413000,-0.17727941,-0.21546674,-0.07320493
77,2023-05-12 15:32:47.454000,-0.20497629,-0.078047626,-0.17440504
78,2023-05-12 15:32:47.454000,-0.3573081,-0.025854455,-0.1499016
79,2023-05-12 15:32:47.474000,-0.524022,-0.12705457,-0.07426782
80,2023-05-12 15:32:47.498000,-0.32694805,-0.113738775,-0.13605316
81,2023-05-12 15:32:47.513000,0.19343363,0.055105645,-0.22873116
82,2023-05-12 15:32:47.531000,0.42299813,-0.04396395,-0.30756074
83,2023-05-12 15:32:47.551000,0.20035785,-0.22026521,-0.32620287
84,2023-05-12 15:32:47.575000,-0.11549306,-0.33637905,-0.1914469
85,2023-05-12 15:32:47.592000,-0.117090955,-0.41094756,-0.088648885
86,2023-05-12 15:32:47.630000,0.24936001,-0.2218631,-0.088648885
87,2023-05-12 15:32:47.642000,0.5417751,0.44659033,-0.07906151
88,2023-05-12 15:32:47.660000,0.54443824,0.82955295,-0.017276166
89,2023-05-12 15:32:47.675000,0.3548212,0.35604283,0.10576188
90,2023-05-12 15:32:47.699000,0.41873708,0.024745606,0.12866506
91,2023-05-12 15:32:47.713000,0.59876674,-0.0098754885,0.031726003
92,2023-05-12 15:32:47.731000,0.6744005,-0.26980004,-0.058821477
93,2023-05-12 15:32:47.758000,0.6365836,-0.2644737,-0.03059197
94,2023-05-12 15:32:47.787000,0.38677913,-0.12758721,0.014149135
95,2023-05-12 15:32:47.810000,0.101820886,-0.12332616,0.033856526
96,2023-05-12 15:32:47.811000,-0.047316138,-0.28737688,0.064749196
97,2023-05-12 15:32:47.841000,-0.055838253,-0.43172023,0.06421656
98,2023-05-12 15:32:47.858000,0.048557665,-0.4263939,0.035454422
99,2023-05-12 15:32:47.876000,0.17851993,-0.3534233,0.013083871
100,2023-05-12 15:32:47.893000,0.14815989,-0.3486296,0.0034964914
101,2023-05-12 15:32:47.910000,-0.04039192,-0.38325068,-0.008221418
102,2023-05-12 15:32:47.931000,-0.19112684,-0.4050886,-0.022069855
103,2023-05-12 15:32:47.950000,-0.2614343,-0.4524929,-0.026330912
104,2023-05-12 15:32:47.977000,-0.2534452,-0.4498278,-0.03219083
105,2023-05-12 15:32:47.992000,-0.16662617,-0.34702978,-0.046039265
106,2023-05-12 15:32:48.011000,-0.12667875,-0.13504213,-0.060420334
107,2023-05-12 15:32:48.030000,-0.19538832,0.10624027,-0.04710453
108,2023-05-12 15:32:48.058000,-0.29765368,0.14885084,-0.0023634224
109,2023-05-12 15:32:48.079000,-0.40045172,0.3017163,0.04291032
110,2023-05-12 15:32:48.092000,-0.22894414,0.5440639,0.045040846
111,2023-05-12 15:32:48.111000,0.39317033,0.95259285,-0.0050265836
112,2023-05-12 15:32:48.132000,0.8299287,1.0197046,0.090847224
113,2023-05-12 15:32:48.157000,0.510882,0.46203858,0.27567062
114,2023-05-12 15:32:48.178000,-0.11283031,-0.079648376,0.3630223
115,2023-05-12 15:32:48.195000,-0.65558255,-0.2682002,0.41894868
116,2023-05-12 15:32:48.209000,-1.2020632,0.57655454,0.4509066
117,2023-05-12 15:32:48.240000,-1.2537285,0.683081,0.33958647
118,2023-05-12 15:32:48.258000,-0.7354774,0.15151401,0.1797968
119,2023-05-12 15:32:48.277000,-0.071284994,-0.115334734,0.15689361
120,2023-05-12 15:32:48.292000,0.3596145,0.01995385,0.106826186
121,2023-05-12 15:32:48.311000,0.37239766,0.6495251,0.02213766
122,2023-05-12 15:32:48.341000,0.19929217,0.9270265,-0.04444137
123,2023-05-12 15:32:48.357000,0.065068856,0.5866745,-0.10356355
124,2023-05-12 15:32:48.373000,-0.12348296,-0.1345095,-0.12912989
125,2023-05-12 15:32:48.392000,-0.44306228,-0.688447,-0.12966251
126,2023-05-12 15:32:48.424000,-0.63321203,-0.69057757,-0.1126183
127,2023-05-12 15:32:48.443000,-0.44306228,-0.4535562,-0.14564149
128,2023-05-12 15:32:48.457000,-0.030272316,-0.04982097,-0.24045002
129,2023-05-12 15:32:48.481000,0.2344459,0.4007859,-0.22287317
130,2023-05-12 15:32:48.499000,0.24829519,0.4034451,-0.16747744
131,2023-05-12 15:32:48.508000,0.23018569,0.17814167,-0.22500172
132,2023-05-12 15:32:48.529000,0.3217984,0.14937952,-0.2990376
133,2023-05-12 15:32:48.558000,0.42406383,0.049777295,-0.28518915
134,2023-05-12 15:32:48.576000,0.37346375,-0.19683142,-0.21008801
135,2023-05-12 15:32:48.596000,0.06720022,-0.4642128,-0.07053839
136,2023-05-12 15:32:48.610000,-0.14159161,-0.6447751,0.017878568
137,2023-05-12 15:32:48.628000,0.32712474,-0.17392823,-0.07373418
138,2023-05-12 15:32:48.658000,1.0158182,0.9818837,-0.11954055
139,2023-05-12 15:32:48.680000,0.9343255,1.1017259,0.0034974965
140,2023-05-12 15:32:48.701000,0.34523425,-0.006149088,0.067945994
141,2023-05-12 15:32:48.708000,0.2568173,-0.52919394,-0.10036579
142,2023-05-12 15:32:48.730000,0.5801251,-0.5750003,-0.28465652
143,2023-05-12 15:32:48.749000,0.47253335,-0.476996,-0.24044806
144,2023-05-12 15:32:48.794000,0.12578976,-0.32093474,-0.12433424
145,2023-05-12 15:32:48.794000,-0.08513259,-0.29749894,-0.04550467
146,2023-05-12 15:32:48.807000,-0.14212424,-0.3651432,0.004030129
147,2023-05-12 15:32:48.840000,-0.116557896,-0.4109496,0.070076525
148,2023-05-12 15:32:48.862000,-0.10270946,-0.36248007,0.09511024
149,2023-05-12 15:32:48.875000,-0.20657274,-0.40242746,0.070076525
150,2023-05-12 15:32:48.891000,-0.3381329,-0.49563813,0.012019612
151,2023-05-12 15:32:48.914000,-0.45264882,-0.49936655,-0.014079367
152,2023-05-12 15:32:48.927000,-0.57408893,-0.5030949,-0.008220413
153,2023-05-12 15:32:48.958000,-0.60657954,-0.54730344,0.008291186
154,2023-05-12 15:32:48.979000,-0.58207846,-0.56754345,0.021606993
155,2023-05-12 15:32:48.992000,-0.5863395,-0.47752863,0.020009097
156,2023-05-12 15:32:49.008000,-0.53467417,-0.22506092,0.002432232
157,2023-05-12 15:32:49.028000,-0.45531198,0.16748902,-0.018340424
158,2023-05-12 15:32:49.057000,-0.45318148,0.37148714,0.042379647
159,2023-05-12 15:32:49.079000,-0.47235623,0.38586822,0.17766824
160,2023-05-12 15:32:49.090000,-0.29126126,0.5733548,0.2596936
161,2023-05-12 15:32:49.112000,0.2584152,0.9435342,0.2447799
162,2023-05-12 15:32:49.140000,0.664281,1.1272923,0.29005364
163,2023-05-12 15:32:49.164000,0.2504257,0.5174284,0.5180202
164,2023-05-12 15:32:49.180000,-0.660908,-0.22825672,0.7459868
165,2023-05-12 15:32:49.192000,-1.206856,-0.7539647,0.68739724
166,2023-05-12 15:32:49.214000,-1.0768938,0.44126198,0.51908547
167,2023-05-12 15:32:49.240000,-0.7834134,1.7595267,0.36568743
168,2023-05-12 15:32:49.257000,-0.53786993,0.8673678,0.25010622
169,2023-05-12 15:32:49.274000,-0.31256655,-0.4391791,0.28525996
170,2023-05-12 15:32:49.296000,-0.08886102,-0.43225488,0.27567258
171,2023-05-12 15:32:49.314000,0.10128868,0.29691863,0.16648297
172,2023-05-12 15:32:49.341000,0.15401928,0.7155676,0.020009097
173,2023-05-12 15:32:49.361000,0.04909073,0.56909376,-0.07479944
174,2023-05-12 15:32:49.378000,-0.11549263,0.23247015,-0.104094215
175,2023-05-12 15:32:49.393000,-0.21988855,-0.16221033,-0.08172366
176,2023-05-12 15:32:49.411000,-0.23213908,-0.6740699,-0.03644992
177,2023-05-12 15:32:49.432000,-0.15011373,-0.8045648,-0.054026786
178,2023-05-12 15:32:49.462000,-0.12241685,-0.36194742,-0.1088879
179,2023-05-12 15:32:49.473000,0.0032843568,-0.00029013376,-0.22819752
180,2023-05-12 15:32:49.492000,0.28504682,0.12647633,-0.35815978
181,2023-05-12 15:32:49.508000,0.57959247,0.2750807,-0.37254086
182,2023-05-12 15:32:49.540000,0.8831938,0.36082983,-0.324069
183,2023-05-12 15:32:49.558000,0.96841496,0.30863187,-0.26920786
184,2023-05-12 15:32:49.573000,0.7345894,0.014086241,-0.18984567
185,2023-05-12 15:32:49.590000,0.3409742,-0.3832574,-0.14297403
186,2023-05-12 15:32:49.609000,0.11034443,-0.64371455,-0.24950048
187,2023-05-12 15:32:49.640000,0.60196394,0.107296884,-0.34750482
188,2023-05-12 15:32:49.658000,1.2938533,1.4015932,-0.25056577
189,2023-05-12 15:32:49.675000,1.1021056,0.68999654,-0.043371808
190,2023-05-12 15:32:49.692000,0.5673429,-0.45995644,-0.0012938638
191,2023-05-12 15:32:49.708000,0.4517617,-0.74491465,-0.10995084
192,2023-05-12 15:32:49.746000,0.35162684,-0.5190786,-0.19890042
193,2023-05-12 15:32:49.746000,0.0933002,-0.20269507,-0.2218036
194,2023-05-12 15:32:49.774000,0.038971715,0.002900965,-0.21115096
195,2023-05-12 15:32:49.789000,0.1742603,-0.09616862,-0.15362668
196,2023-05-12 15:32:49.807000,0.124725506,-0.4972407,-0.024197051
197,2023-05-12 15:32:49.827000,-0.16342853,-0.61495245,0.09830836
198,2023-05-12 15:32:49.845000,-0.2688897,-0.46847856,0.12280945
199,2023-05-12 15:32:49.865000,-0.17141801,-0.36301738,0.065817796
200,2023-05-12 15:32:49.885000,-0.15224326,-0.33691838,-0.006620186
201,2023-05-12 15:32:49.907000,-0.21828966,-0.33585313,-0.044437073
202,2023-05-12 15:32:49.924000,-0.28007498,-0.26234987,-0.09077608
203,2023-05-12 15:32:49.959000,-0.3498498,-0.23039195,-0.09184134
204,2023-05-12 15:32:49.973000,-0.53094476,-0.2495667,-0.029523373
205,2023-05-12 15:32:50,-0.8089788,-0.41361743,0.04238198
206,2023-05-12 15:32:50.007000,-0.88727576,-0.5931145,0.050904095
207,2023-05-12 15:32:50.031000,-0.6587765,-0.47646803,0.010956678
208,2023-05-12 15:32:50.049000,-0.43826634,-0.2010992,-0.0076844455
209,2023-05-12 15:32:50.071000,-0.3748831,0.01728001,0.006163992
210,2023-05-12 15:32:50.097000,-0.3237504,0.091315895,0.0109576825
211,2023-05-12 15:32:50.114000,-0.13999228,0.20529918,0.007761889
212,2023-05-12 15:32:50.128000,0.1902397,0.3491099,0.016284006
213,2023-05-12 15:32:50.146000,0.3489641,0.45936477,0.033328235
214,2023-05-12 15:32:50.176000,0.22326289,0.4449837,0.06368828
215,2023-05-12 15:32:50.192000,0.009144742,0.17866758,0.12760414
216,2023-05-12 15:32:50.217000,-0.2672914,-0.18725076,0.1568989
217,2023-05-12 15:32:50.225000,-0.55118436,-0.3198762,0.06262301
218,2023-05-12 15:32:50.244000,-0.6688961,-0.18938129,-0.026859205
219,2023-05-12 15:32:50.272000,-0.5160306,-0.024797937,-0.040175013
220,2023-05-12 15:32:50.296000,-0.30031458,-0.0024273824,-0.017271826
221,2023-05-12 15:32:50.307000,-0.18260287,0.041248463,0.023740856
222,2023-05-12 15:32:50.327000,-0.07394589,0.01728001,0.02959981
223,2023-05-12 15:32:50.360000,-0.04571638,-0.070071675,-0.0055539166
224,2023-05-12 15:32:50.377000,-0.10483856,-0.057288505,-0.033250794
225,2023-05-12 15:32:50.391000,-0.082468,-0.010416865,-0.033250794
226,2023-05-12 15:32:50.410000,0.042700574,0.0066273655,-0.017804457
227,2023-05-12 15:32:50.425000,0.21154499,-0.022134775,-0.019934988
228,2023-05-12 15:32:50.444000,0.3436378,-0.016808452,-0.037511848
229,2023-05-12 15:32:50.474000,0.3489641,0.04870531,-0.046033964
230,2023-05-12 15:32:50.489000,0.26747137,0.06947797,-0.050295025
231,2023-05-12 15:32:50.506000,0.16999967,0.03166108,-0.03378342
232,2023-05-12 15:32:50.530000,0.057081643,-0.004025279,-0.006619181
233,2023-05-12 15:32:50.544000,-0.0031057992,-0.047168486,-0.0124781355
234,2023-05-12 15:32:50.567000,0.0011560034,-0.056226734,-0.027922735
235,2023-05-12 15:32:50.584000,-0.00203979,-0.010420363,-0.023129044
236,2023-05-12 15:32:50.606000,-0.014290331,0.04497339,-0.009280606
237,2023-05-12 15:32:50.626000,0.0011560034,0.060952358,0.00030677393
238,2023-05-12 15:32:50.645000,0.030450776,0.00076491304,0.0013720384
239,2023-05-12 15:32:50.678000,0.07093082,-0.019475112,-0.006084813
240,2023-05-12 15:32:50.689000,0.1268572,0.04071233,-0.009280606
241,2023-05-12 15:32:50.711000,0.13431406,0.052962873,-0.0055521806
242,2023-05-12 15:32:50.723000,0.06081081,0.023135467,0.00030677393
243,2023-05-12 15:32:50.744000,-0.012692435,0.03272285,0.006165728
244,2023-05-12 15:32:50.772000,-0.06116197,0.038049173,0.002969935
245,2023-05-12 15:32:50.789000,-0.10643571,0.020472305,0.009894154
246,2023-05-12 15:32:50.805000,-0.11868625,0.008754397,0.026938384
247,2023-05-12 15:32:50.823000,-0.09791359,0.02846179,0.04238472
248,2023-05-12 15:32:50.855000,-0.06489039,0.036983907,0.04504788
249,2023-05-12 15:32:50.873000,0.0016886357,0.02153757,0.039721556
250,2023-05-12 15:32:50.889000,0.0853119,0.041777596,0.03918893
251,2023-05-12 15:32:50.907000,0.120998256,0.07213763,0.04930894
252,2023-05-12 15:32:50.923000,0.0986277,0.019939674,0.07114686
253,2023-05-12 15:32:50.956000,0.15242356,-0.030127754,0.08819109
254,2023-05-12 15:32:50.977000,0.32286587,0.023135467,0.08819109
255,2023-05-12 15:32:50.989000,0.4325881,0.09557345,0.091386884
256,2023-05-12 15:32:51.006000,0.42992494,0.10089977,0.12121429
257,2023-05-12 15:32:51.028000,0.41554388,0.07107236,0.16169435
258,2023-05-12 15:32:51.042000,0.3846512,0.10196503,0.18885858
259,2023-05-12 15:32:51.067000,0.22539417,0.09557345,0.17447752
260,2023-05-12 15:32:51.082000,-0.028671402,-0.02160564,0.13186693
261,2023-05-12 15:32:51.103000,-0.15383998,-0.0919131,0.08712583
262,2023-05-12 15:32:51.127000,-0.07447778,-0.02373617,0.029601546
263,2023-05-12 15:32:51.141000,0.018732866,0.09291029,-0.0028890194
264,2023-05-12 15:32:51.171000,-0.018551389,0.10675872,0.002969935
265,2023-05-12 15:32:51.190000,-0.098978855,0.031657584,0.041319452
266,2023-05-12 15:32:51.205000,-0.08033673,-0.02373617,0.10310479
267,2023-05-12 15:32:51.222000,0.021396028,-0.021073008,0.14038906
268,2023-05-12 15:32:51.257000,0.06294134,-0.007224571,0.1345301
269,2023-05-12 15:32:51.272000,0.089040324,-0.0082898345,0.11588797
270,2023-05-12 15:32:51.288000,0.16201094,-0.08232572,0.093517415
271,2023-05-12 15:32:51.305000,0.16573936,-0.18885216,0.07594055
272,2023-05-12 15:32:51.324000,0.19024044,-0.19417848,0.007763625
273,2023-05-12 15:32:51.361000,0.39903226,-0.10895733,-0.07319647
274,2023-05-12 15:32:51.373000,0.6046283,-0.021073008,-0.12539443
275,2023-05-12 15:32:51.389000,0.64777154,0.07267026,-0.1594829
276,2023-05-12 15:32:51.410000,0.63498837,0.10089977,-0.17173344
277,2023-05-12 15:32:51.429000,0.6445757,0.0566913,-0.16587448
278,2023-05-12 15:32:51.443000,0.54603875,0.046038654,-0.10728493
279,2023-05-12 15:32:51.461000,0.3233985,0.06627867,-0.046032228
280,2023-05-12 15:32:51.490000,0.13910775,0.0566913,-0.015672192
281,2023-05-12 15:32:51.504000,0.06027818,-0.0003003514,-0.015139561
282,2023-05-12 15:32:51.523000,0.06453924,0.025798628,-0.02685747
283,2023-05-12 15:32:51.540000,0.13750985,0.19837147,-0.031118527
284,2023-05-12 15:32:51.571000,0.21953522,0.38319486,-0.019400619
285,2023-05-12 15:32:51.589000,0.21314363,0.4066307,-0.0034216517
286,2023-05-12 15:32:51.604000,0.1481625,0.36774853,0.024275225
287,2023-05-12 15:32:51.623000,0.14709723,0.34804115,0.058896318
288,2023-05-12 15:32:51.641000,0.20728467,0.3459106,0.07274476
289,2023-05-12 15:32:51.672000,0.15029302,0.39331487,0.073810026
290,2023-05-12 15:32:51.688000,-0.029204033,0.391717,0.06209211
291,2023-05-12 15:32:51.710000,-0.057433542,0.33312744,0.067418434
292,2023-05-12 15:32:51.725000,0.06453924,0.38319486,0.09032162
293,2023-05-12 15:32:51.755000,0.11726983,0.40769595,0.1196164
294,2023-05-12 15:32:51.772000,0.09330138,0.33845377,0.12654062
295,2023-05-12 15:32:51.788000,0.06507187,0.29903898,0.1180185
296,2023-05-12 15:32:51.805000,0.035244465,0.3096916,0.12813851
297,2023-05-12 15:32:51.824000,-0.012692435,0.21807887,0.1494438
298,2023-05-12 15:32:51.854000,-0.08086936,0.02899442,0.18513016
299,2023-05-12 15:32:51.875000,-0.20337477,-0.2873891,0.1941849
300,2023-05-12 15:32:51.889000,-0.5208236,-0.8290761,0.11429007
301,2023-05-12 15:32:51.910000,-0.8627735,-1.0820763,-0.016737457
302,2023-05-12 15:32:51.922000,-0.94799465,-0.6708844,-0.088642806
303,2023-05-12 15:32:51.941000,-0.8361419,-0.026931962,-0.039640643
304,2023-05-12 15:32:51.962000,-0.7855418,0.32567057,0.030666811
305,2023-05-12 15:32:51.984000,-0.8947314,0.25962418,0.050374202
306,2023-05-12 15:32:52.004000,-0.9245588,-0.08285835,0.04717841
307,2023-05-12 15:32:52.027000,-0.6561122,-0.232528,0.009894154
308,2023-05-12 15:32:52.039000,-0.21029899,-0.16861214,-0.0023563872
309,2023-05-12 15:32:52.072000,0.15934777,0.097171344,0.022677327
310,2023-05-12 15:32:52.088000,0.27599424,0.4449802,-0.009280606
311,2023-05-12 15:32:52.105000,0.16201094,0.66868573,-0.056684874
312,2023-05-12 15:32:55.491000,-0.12134625,-0.016826771,0.02428258
313,2023-05-12 15:32:55.502000,-0.09364937,0.0130006345,-0.0028816643
314,2023-05-12 15:32:55.502000,-0.09524727,0.003413254,-0.029513275
315,2023-05-12 15:32:55.502000,-0.11122624,-0.010967816,-0.038035393
316,2023-05-12 15:32:55.502000,-0.103769384,-0.016826771,-0.020458527
317,2023-05-12 15:32:55.502000,-0.10962834,-0.022153094,-0.012469044
318,2023-05-12 15:32:55.502000,-0.12667258,0.0028806217,-0.034839597
319,2023-05-12 15:32:55.502000,-0.07980093,0.008739576,-0.049220666
320,2023-05-12 15:32:55.502000,-0.022276659,0.0018153572,-0.04282908
321,2023-05-12 15:32:55.502000,-0.00576506,0.017261691,-0.043361712
322,2023-05-12 15:32:55.502000,0.008083377,0.019392222,-0.044426978
323,2023-05-12 15:32:55.502000,0.016072862,0.018326957,-0.03537223
324,2023-05-12 15:32:55.523000,0.026725505,0.020990118,-0.026317481
325,2023-05-12 15:32:55.537000,0.04430237,0.0018153572,-0.02578485
326,2023-05-12 15:32:55.555000,0.043237105,0.0130006345,-0.038035393
327,2023-05-12 15:32:55.585000,0.028323403,0.025783807,-0.03750276
328,2023-05-12 15:32:55.601000,-0.007895589,0.005543783,-0.022056423
329,2023-05-12 15:32:55.618000,-0.043581948,-0.0061741257,-0.013001677
330,2023-05-12 15:32:55.635000,-0.04890827,0.010870106,-0.00661009
331,2023-05-12 15:32:55.652000,-0.062224075,0.02152275,0.006173083
332,2023-05-12 15:32:55.675000,-0.10057359,0.009272208,0.008836245
333,2023-05-12 15:32:55.691000,-0.12560731,-0.0051088617,0.0056404513
334,2023-05-12 15:32:55.718000,-0.12400941,-0.012033081,0.009368878
335,2023-05-12 15:32:55.740000,-0.0973778,-0.0040435973,0.010434141
336,2023-05-12 15:32:55.753000,-0.057962548,0.012998425,-0.0012826712
337,2023-05-12 15:32:55.769000,-0.024939349,0.0050089415,-0.009272154
338,2023-05-12 15:32:55.803000,-0.021210924,-0.017894246,-0.006076361
339,2023-05-12 15:32:55.824000,-0.0100256475,-0.01682898,0.0013804899
340,2023-05-12 15:32:55.841000,0.003290158,-0.0013826453,0.005641548
341,2023-05-12 15:32:55.859000,-0.0062972223,-0.0045784386,0.0024457544
342,2023-05-12 15:32:55.869000,-0.011090913,-0.024818465,0.0029783866
343,2023-05-12 15:32:55.896000,0.006485951,-0.01203529,0.009369974
344,2023-05-12 15:32:55.913000,0.01820386,0.006606838,0.012565766
345,2023-05-12 15:32:55.934000,0.008083847,-0.006176335,0.0024457544
346,2023-05-12 15:32:55.951000,0.0075512156,-0.0067089675,-0.004478465
