DataCollection,,,,,,,,,,,,,,,,,,
collect_uuid,label,p_accelerometer_time,p_accelerometer_x,p_accelerometer_y,p_accelerometer_z,p_gyroscope_time,p_gyroscope_x,p_gyroscope_y,p_gyroscope_z,participant_uuid,w_accelerometer_time,w_accelerometer_x,w_accelerometer_y,w_accelerometer_z,w_gyroscope_time,w_gyroscope_x,w_gyroscope_y,w_gyroscope_z
ea91fd80-ae07-49d4-a8e8-d2a94aab2600,2e2apickup,2023-04-29 12:15:27.097,9.934542,2.562671,0.8909473,2023-04-29 12:15:27.098,0.0125114955,-0.030957624,-0.028885288,2e2ac25e-545d-4830-b9cd-d301e440dc18,2023-04-29 12:17:58.871,-1.7946169,0.49052864,9.30808,2023-04-29 12:17:58.918,0.03174889,0.058613338,-0.03174889
,,2023-04-29 12:17:58.834,9.901011,2.6105714,0.9580079,2023-04-29 12:17:58.855,-0.04359775,0.02813591,0.00768788,,2023-04-29 12:17:58.872,-1.8161523,0.39481574,9.293723,2023-04-29 12:17:58.92,-0.029306669,0.035412222,-0.018316668
,,2023-04-29 12:17:58.837,9.896221,2.5387208,1.0106983,2023-04-29 12:17:58.869,-0.053185128,0.024940116,0.0055573513,,2023-04-29 12:17:58.872,-1.7946169,0.29671,9.293723,2023-04-29 12:17:58.961,-0.039075557,0.015874445,-0.012211111
,,2023-04-29 12:17:58.837,9.862691,2.5195606,1.0106983,2023-04-29 12:17:58.914,-0.053717762,0.029201174,0.01248157,,2023-04-29 12:17:58.92,-1.9884356,0.33020952,9.334401,2023-04-29 12:17:58.961,0.0048844446,0.009768889,-0.014653334
,,2023-04-29 12:17:58.855,9.896221,2.543511,1.0442286,2023-04-29 12:17:58.914,-0.05052197,0.03026644,0.013014202,,2023-04-29 12:17:58.92,-1.9645073,0.3900301,9.420543,2023-04-29 12:17:59.006,0.037854444,0.0048844446,-0.018316668
,,2023-04-29 12:17:58.868,9.901011,2.572251,1.0777588,2023-04-29 12:17:58.933,-0.04626091,0.033462234,0.011416306,,2023-04-29 12:17:58.92,-1.942972,0.47138608,9.458828,2023-04-29 12:17:59.049,0.02075889,-0.0012211112,-0.018316668
,,2023-04-29 12:17:58.913,9.877061,2.5770411,1.0873389,2023-04-29 12:17:58.954,-0.024955621,0.021211691,0.01248157,,2023-04-29 12:17:58.96,-1.9405792,0.52163535,9.475577,2023-04-29 12:17:59.05,0.0012211112,-0.009768889,-0.009768889
,,2023-04-29 12:17:58.914,9.8866415,2.5530908,1.0681788,2023-04-29 12:17:58.984,0.010730739,-0.005952551,0.0119489385,,2023-04-29 12:17:58.961,-1.9070797,0.5168497,9.49472,2023-04-29 12:17:59.053,0.007326667,-0.01099,-0.0061055557
,,2023-04-29 12:17:58.933,9.905801,2.562671,1.1639795,2023-04-29 12:17:59.001,0.02777497,-0.024594681,0.008753145,,2023-04-29 12:17:58.961,-1.8664017,0.44985065,9.513863,2023-04-29 12:17:59.095,0.023201112,-0.009768889,-0.012211111
,,2023-04-29 12:17:58.954,9.8866415,2.572251,1.2310401,2023-04-29 12:17:59.017,0.024579177,-0.030986266,0.007155248,,2023-04-29 12:17:58.966,-1.835295,0.37328035,9.533006,2023-04-29 12:17:59.097,0.03297,-0.019537779,-0.012211111
,,2023-04-29 12:17:58.983,9.872271,2.5914114,1.1927198,2023-04-29 12:17:59.041,0.02511181,-0.027790474,0.0066226157,,2023-04-29 12:17:59.004,-1.7922242,0.3182454,9.547362,2023-04-29 12:17:59.14,0.037854444,-0.02075889,-0.0036633336
,,2023-04-29 12:17:59.0,9.872271,2.6057813,1.1064991,2023-04-29 12:17:59.056,0.022448648,-0.015007299,0.005024719,,2023-04-29 12:17:59.004,-1.7778672,0.29671,9.547362,2023-04-29 12:17:59.183,0.054950003,-0.019537779,0
,,2023-04-29 12:17:59.017,9.891431,2.5914114,1.096919,2023-04-29 12:17:59.075,0.008067578,-0.008615713,0.0039594546,,2023-04-29 12:17:59.006,-1.7706888,0.35653058,9.571291,2023-04-29 12:17:59.183,0.06716111,-0.02198,0.007326667
,,2023-04-29 12:17:59.04,9.924961,2.567461,1.0777588,2023-04-29 12:17:59.09,-0.0015198023,-0.0048872875,0.005024719,,2023-04-29 12:17:59.006,-1.7706888,0.3804588,9.556933,2023-04-29 12:17:59.189,0.068382226,-0.026864445,0.007326667
,,2023-04-29 12:17:59.056,9.924961,2.543511,1.0681788,2023-04-29 12:17:59.116,0.000078094425,0.005765357,0.0066226157,,2023-04-29 12:17:59.007,-1.820938,0.44506502,9.549755,2023-04-29 12:17:59.231,0.07570889,-0.036633335,0
,,2023-04-29 12:17:59.074,9.8866415,2.567461,1.0729688,2023-04-29 12:17:59.139,0.0027412556,0.008428519,0.0055573513,,2023-04-29 12:17:59.052,-1.8161523,0.526421,9.552148,2023-04-29 12:17:59.231,0.07204556,-0.047623336,0
,,2023-04-29 12:17:59.089,9.867481,2.5818312,1.0633887,2023-04-29 12:17:59.166,0.0027412556,0.00896115,0.0039594546,,2023-04-29 12:17:59.053,-1.820938,0.5455636,9.537791,2023-04-29 12:17:59.235,0.07448778,-0.06105556,-0.0036633336
,,2023-04-29 12:17:59.116,9.905801,2.5243506,1.0873389,2023-04-29 12:17:59.184,-0.0041829636,0.0020369317,0.0066226157,,2023-04-29 12:17:59.053,-1.7826529,0.526421,9.5665045,2023-04-29 12:17:59.277,0.09402556,-0.064718895,-0.012211111
,,2023-04-29 12:17:59.139,9.924961,2.5243506,1.1160791,2023-04-29 12:17:59.202,-0.0036503312,-0.00009359722,0.010351041,,2023-04-29 12:17:59.094,-1.7563318,0.46660042,9.561719,2023-04-29 12:17:59.277,0.117226675,-0.07448778,-0.03052778
,,2023-04-29 12:17:59.166,9.896221,2.5578809,1.1208692,2023-04-29 12:17:59.217,0.0091328425,0.000439035,0.01248157,,2023-04-29 12:17:59.094,-1.7682959,0.44745782,9.556933,2023-04-29 12:17:59.32,0.13432223,-0.089141116,-0.05250778
,,2023-04-29 12:17:59.183,9.867481,2.562671,1.096919,2023-04-29 12:17:59.237,0.020850752,-0.00009359722,0.010883673,,2023-04-29 12:17:59.095,-1.7730815,0.47138608,9.556933,2023-04-29 12:17:59.321,0.14287001,-0.10501556,-0.07570889
,,2023-04-29 12:17:59.201,9.891431,2.5195606,1.096919,2023-04-29 12:17:59.266,0.02511181,0.007363254,0.014079467,,2023-04-29 12:17:59.098,-1.7778672,0.5072784,9.549755,2023-04-29 12:17:59.367,0.09036223,-0.12943779,-0.064718895
,,2023-04-29 12:17:59.217,9.901011,2.5004005,1.1256592,2023-04-29 12:17:59.282,0.026709706,0.033994865,0.025264744,,2023-04-29 12:17:59.139,-1.7826529,0.5168497,9.521041,2023-04-29 12:17:59.409,0.0012211112,-0.17950334,-0.04396
,,2023-04-29 12:17:59.237,9.8866415,2.562671,1.1064991,2023-04-29 12:17:59.299,0.021916015,0.06648543,0.039645813,,2023-04-29 12:17:59.139,-1.7898313,0.52163535,9.501899,2023-04-29 12:17:59.457,-0.046402223,-0.20514667,-0.012211111
,,2023-04-29 12:17:59.266,9.905801,2.5818312,1.1160791,2023-04-29 12:17:59.316,0.013926533,0.082997024,0.053494252,,2023-04-29 12:17:59.142,-1.7706888,0.53359944,9.499506,2023-04-29 12:17:59.457,-0.07204556,-0.2503278,-0.02075889
,,2023-04-29 12:17:59.282,9.953702,2.5962012,1.0154883,2023-04-29 12:17:59.356,0.015524429,0.07181175,0.063614264,,2023-04-29 12:17:59.142,-1.7730815,0.4953143,9.504292,2023-04-29 12:17:59.459,-0.12455334,-0.22346334,-0.08303556
,,2023-04-29 12:17:59.299,9.982442,2.5387208,1.0346485,2023-04-29 12:17:59.372,0.046421476,0.020147113,0.06361853,,2023-04-29 12:17:59.142,-1.7778672,0.50488555,9.516255,2023-04-29 12:17:59.545,-0.09524667,-0.08425667,-0.23933779
,,2023-04-29 12:17:59.315,9.953702,2.4860303,1.1591895,2023-04-29 12:17:59.386,0.058672015,-0.0043539694,0.05722695,,2023-04-29 12:17:59.189,-1.7778672,0.5024927,9.509077,2023-04-29 12:17:59.545,0.15996556,0.04029667,-0.2869611
,,2023-04-29 12:17:59.355,9.881851,2.43813,1.336421,2023-04-29 12:17:59.399,0.03150777,0.016418686,0.04763957,,2023-04-29 12:17:59.189,-1.7659031,0.5192425,9.52822,2023-04-29 12:17:59.548,0.14775445,0.04029667,-0.13310112
,,2023-04-29 12:17:59.371,9.829161,2.3950195,1.22625,2023-04-29 12:17:59.419,-0.02654914,0.04731136,0.03805219,,2023-04-29 12:17:59.189,-1.7922242,0.53359944,9.504292,2023-04-29 12:17:59.588,0.054950003,0,-0.026864445
,,2023-04-29 12:17:59.385,9.881851,2.4189699,1.0777588,2023-04-29 12:17:59.44,-0.088867106,0.07713876,0.027932176,,2023-04-29 12:17:59.229,-1.8233309,0.51445687,9.497113,2023-04-29 12:17:59.589,-0.15019667,-0.0048844446,0.05006556
,,2023-04-29 12:17:59.399,9.848321,2.4956105,0.9580079,2023-04-29 12:17:59.454,-0.097921856,0.0744756,0.02154059,,2023-04-29 12:17:59.229,-1.8400806,0.53359944,9.533006,2023-04-29 12:17:59.591,-0.17950334,0.02198,0.013432222
,,2023-04-29 12:17:59.419,9.85311,2.567461,0.8669971,2023-04-29 12:17:59.482,-0.06969235,0.04784399,0.018877428,,2023-04-29 12:17:59.229,-1.8927227,0.53599226,9.556933,2023-04-29 12:17:59.636,-0.0012211112,0.07570889,-0.0061055557
,,2023-04-29 12:17:59.439,9.877061,2.5578809,1.0873389,2023-04-29 12:17:59.52,-0.056909177,0.022810273,0.017279532,,2023-04-29 12:17:59.231,-1.8999012,0.5072784,9.547362,2023-04-29 12:17:59.638,0.102573335,0.117226675,-0.0048844446
,,2023-04-29 12:17:59.454,9.800421,2.5291407,1.2597803,2023-04-29 12:17:59.521,-0.053713385,0.0052334107,0.013018474,,2023-04-29 12:17:59.232,-1.9166509,0.5168497,9.51147,2023-04-29 12:17:59.68,0.07448778,0.13310112,-0.012211111
,,2023-04-29 12:17:59.481,9.80521,2.5099807,1.2597803,2023-04-29 12:17:59.537,-0.039332315,-0.0011581762,0.012485841,,2023-04-29 12:17:59.233,-1.9357935,0.51445687,9.523434,2023-04-29 12:17:59.724,-0.019537779,0.16240779,-0.02075889
,,2023-04-29 12:17:59.516,9.891431,2.4908204,1.2597803,2023-04-29 12:17:59.566,-0.0068417476,-0.00914766,0.015681636,,2023-04-29 12:17:59.236,-1.9094725,0.49052864,9.556933,2023-04-29 12:17:59.724,-0.10745778,0.17217667,-0.064718895
,,2023-04-29 12:17:59.52,9.982442,2.44771,1.2406201,2023-04-29 12:17:59.582,0.0096698515,-0.011278189,0.01461637,,2023-04-29 12:17:59.273,-1.861616,0.44027936,9.568898,2023-04-29 12:17:59.726,-0.13310112,0.14409111,-0.085477784
,,2023-04-29 12:17:59.536,9.972861,2.4668703,1.2693604,2023-04-29 12:17:59.605,0.013398277,-0.007017131,0.010355312,,2023-04-29 12:17:59.275,-1.847259,0.4331009,9.554541,2023-04-29 12:17:59.771,-0.09646778,0.10379445,-0.05617111
,,2023-04-29 12:17:59.566,9.924961,2.4716604,1.1975098,2023-04-29 12:17:59.617,0.021920392,-0.015539247,0.0044963583,,2023-04-29 12:17:59.278,-1.8424734,0.41635114,9.556933,2023-04-29 12:17:59.771,-0.02198,0.06594,-0.0048844446
,,2023-04-29 12:17:59.582,9.910591,2.42855,1.1783496,2023-04-29 12:17:59.651,0.028844612,-0.022996098,-0.00029733172,,2023-04-29 12:17:59.279,-1.8592232,0.3924229,9.52822,2023-04-29 12:17:59.815,0.019537779,0.05250778,0.02075889
,,2023-04-29 12:17:59.604,9.857901,2.4333398,1.2358302,2023-04-29 12:17:59.67,0.012865644,-0.021398202,0.0018331972,,2023-04-29 12:17:59.319,-1.8400806,0.38524446,9.518648,2023-04-29 12:17:59.859,0.03174889,0.047623336,0.039075557
,,2023-04-29 12:17:59.617,9.85311,2.43813,1.2597803,2023-04-29 12:17:59.681,-0.000982793,-0.019267673,0.005561623,,2023-04-29 12:17:59.32,-1.8664017,0.3589234,9.521041,2023-04-29 12:17:59.86,0.048844445,0.03297,0.035412222
,,2023-04-29 12:17:59.651,9.8866415,2.4572902,1.1591895,2023-04-29 12:17:59.707,-0.0025806897,-0.007017131,0.009822681,,2023-04-29 12:17:59.32,-1.8640088,0.34456646,9.482756,2023-04-29 12:17:59.862,0.07570889,0.018316668,0.03174889
,,2023-04-29 12:17:59.669,9.8866415,2.4572902,1.1783496,2023-04-29 12:17:59.721,-0.014298599,0.009494469,0.014083739,,2023-04-29 12:17:59.321,-1.8329022,0.37088752,9.49472,2023-04-29 12:17:59.905,0.07570889,0.014653334,0.025643334
,,2023-04-29 12:17:59.681,9.867481,2.43813,1.1687696,2023-04-29 12:17:59.748,-0.03347336,0.026538698,0.016214268,,2023-04-29 12:17:59.367,-1.7850457,0.44745782,9.487542,2023-04-29 12:17:59.906,0.08303556,0.01099,0.019537779
,,2023-04-29 12:17:59.707,9.867481,2.4620802,1.1591895,2023-04-29 12:17:59.765,-0.03347336,0.04038714,0.018344797,,2023-04-29 12:17:59.409,-1.7898313,0.5982057,9.513863,2023-04-29 12:17:59.951,0.13310112,0.013432222,0.009768889
,,2023-04-29 12:17:59.72,9.8866415,2.4572902,1.1543995,2023-04-29 12:17:59.783,-0.02175545,0.044648197,0.022073222,,2023-04-29 12:17:59.409,-1.7874385,0.7728817,9.49472,2023-04-29 12:17:59.994,0.21613668,0.009768889,0.0012211112
,,2023-04-29 12:17:59.747,9.934542,2.3998096,1.1687696,2023-04-29 12:17:59.799,-0.01696176,0.03612608,0.025269017,,2023-04-29 12:17:59.411,-1.7850457,0.9236295,9.52822,2023-04-29 12:17:59.994,0.22102112,0.007326667,0.03297
,,2023-04-29 12:17:59.765,9.948912,2.3902297,1.2549903,2023-04-29 12:17:59.831,-0.010037541,0.037191346,0.026866913,,2023-04-29 12:17:59.411,-1.8089739,0.8781659,9.686146,2023-04-29 12:17:59.996,0.17339778,0.018316668,0.026864445
,,2023-04-29 12:17:59.783,9.910591,2.43813,1.2741505,2023-04-29 12:17:59.854,0.016594071,0.051572416,0.025269017,,2023-04-29 12:17:59.411,-1.68694,0.78723866,9.786645,2023-04-29 12:18:00.04,0.13920668,0.008547778,0.04029667
,,2023-04-29 12:17:59.799,9.920172,2.44292,1.2549903,2023-04-29 12:17:59.867,0.05281306,0.052105047,0.025269017,,2023-04-29 12:17:59.457,-1.5146568,0.67477596,9.853643,2023-04-29 12:18:00.042,0.109900005,0.007326667,0.047623336
,,2023-04-29 12:17:59.831,9.953702,2.3710694,1.2549903,2023-04-29 12:17:59.889,0.05920465,0.03293029,0.025801647,,2023-04-29 12:17:59.458,-1.5098711,0.62931234,9.9756775,2023-04-29 12:18:00.087,0.078151114,0.008547778,0.04029667
,,2023-04-29 12:17:59.854,9.929751,2.3710694,1.3507911,2023-04-29 12:17:59.904,0.048552003,0.004700778,0.024736384,,2023-04-29 12:17:59.459,-1.4979069,0.5168497,10.109675,2023-04-29 12:18:00.129,0.08669889,0.02198,0.03174889
,,2023-04-29 12:17:59.866,9.910591,2.4333398,1.3651612,2023-04-29 12:17:59.932,0.054410957,0.00043972046,0.023138486,,2023-04-29 12:17:59.499,-1.2562319,0.43788654,10.059426,2023-04-29 12:18:00.129,0.06960334,0.024422223,0.034191113
,,2023-04-29 12:17:59.888,9.881851,2.42376,1.2933106,2023-04-29 12:17:59.95,0.056541488,0.015886055,0.02154059,,2023-04-29 12:17:59.544,-0.81834537,0.44745782,9.71486,2023-04-29 12:18:00.131,0.0048844446,0.01099,0.04151778
,,2023-04-29 12:17:59.903,9.862691,2.4093897,1.2549903,2023-04-29 12:17:59.969,0.037366726,0.024940802,0.022073222,,2023-04-29 12:17:59.544,-1.0719845,0.06460621,9.013762,2023-04-29 12:18:00.175,-0.019537779,0.007326667,0.036633335
,,2023-04-29 12:17:59.932,9.877061,2.3902297,1.2549903,2023-04-29 12:17:59.987,0.012333013,0.03612608,0.02633428,,2023-04-29 12:17:59.546,-1.861616,-0.2632105,8.69791,2023-04-29 12:18:00.177,0.007326667,0.013432222,0.042738892
,,2023-04-29 12:17:59.946,9.8866415,2.3710694,1.2166699,2023-04-29 12:18:00.014,-0.006309116,0.053702943,0.028464809,,2023-04-29 12:17:59.547,-1.9477576,-0.18185452,8.683554,2023-04-29 12:18:00.221,0.025643334,0.0048844446,0.05617111
,,2023-04-29 12:17:59.969,9.891431,2.3854396,1.2406201,2023-04-29 12:18:00.036,-0.0137659665,0.06648611,0.030595338,,2023-04-29 12:17:59.547,-1.7036897,0.04546363,8.523234,2023-04-29 12:18:00.263,0.015874445,0.0061055557,0.06716111
,,2023-04-29 12:17:59.986,9.843531,2.3519094,1.2454102,2023-04-29 12:18:00.052,-0.013233334,0.06542085,0.03805219,,2023-04-29 12:17:59.549,-1.6558332,0.4546363,8.551949,2023-04-29 12:18:00.309,0.0048844446,0.0061055557,0.06716111
,,2023-04-29 12:18:00.014,9.848321,2.304009,1.3172607,2023-04-29 12:18:00.066,-0.020157553,0.05050715,0.05030273,,2023-04-29 12:17:59.549,-1.672583,1.0624132,8.688339,2023-04-29 12:18:00.312,0.0024422223,0.008547778,0.06960334
,,2023-04-29 12:18:00.035,9.901011,2.3950195,1.341211,2023-04-29 12:18:00.084,-0.014298599,0.037723977,0.0497701,,2023-04-29 12:17:59.549,-1.7467605,1.4117653,8.9013,2023-04-29 12:18:00.354,0.024422223,0.014653334,0.057392225
,,2023-04-29 12:18:00.051,9.929751,2.3998096,1.346001,2023-04-29 12:18:00.113,0.024050921,0.039854508,0.041247983,,2023-04-29 12:17:59.589,-1.7084754,1.5625132,9.157332,2023-04-29 12:18:00.354,0.03174889,0.018316668,0.058613338
,,2023-04-29 12:18:00.065,9.901011,2.2848487,1.3699512,2023-04-29 12:18:00.132,0.0501499,0.038789243,0.033791132,,2023-04-29 12:17:59.589,-1.6175481,1.4261223,9.288938,2023-04-29 12:18:00.403,0.025643334,0.019537779,0.06227667
,,2023-04-29 12:18:00.083,9.862691,2.2273684,1.4513819,2023-04-29 12:18:00.149,0.039497256,0.029734492,0.032725867,,2023-04-29 12:17:59.591,-1.5529419,1.2179468,9.257831,2023-04-29 12:18:00.404,0.012211111,0.017095556,0.064718895
,,2023-04-29 12:18:00.113,9.867481,2.2656887,1.456172,2023-04-29 12:18:00.165,0.034170933,0.022810273,0.033791132,,2023-04-29 12:17:59.635,-1.4715859,0.9379865,9.2075815,2023-04-29 12:18:00.443,0.01099,0.012211111,0.06960334
,,2023-04-29 12:18:00.132,9.881851,2.3135889,1.3795313,2023-04-29 12:18:00.203,0.04322568,0.023875538,0.03858482,,2023-04-29 12:17:59.635,-1.430908,0.59581286,9.19801,2023-04-29 12:18:00.447,0.039075557,0.009768889,0.06594
,,2023-04-29 12:18:00.148,9.862691,2.327959,1.3891114,2023-04-29 12:18:00.213,0.060802545,0.027603963,0.04550904,,2023-04-29 12:17:59.635,-1.4045869,0.26799613,9.152547,2023-04-29 12:18:00.45,0.06594,0.009768889,0.06227667
,,2023-04-29 12:18:00.164,9.896221,2.327959,1.3891114,2023-04-29 12:18:00.236,0.061335176,0.025473434,0.04604167,,2023-04-29 12:17:59.638,-1.3686945,0.10289137,9.200403,2023-04-29 12:18:00.488,0.057392225,-0.0012211112,0.06594
,,2023-04-29 12:18:00.202,9.934542,2.2800586,1.3939015,2023-04-29 12:18:00.247,0.04482358,0.025473434,0.04497641,,2023-04-29 12:17:59.679,-1.3543376,0.17467605,9.281759,2023-04-29 12:18:00.491,0.034191113,-0.015874445,0.07326667
,,2023-04-29 12:18:00.213,9.910591,2.2704787,1.3699512,2023-04-29 12:18:00.266,0.027779346,0.031865023,0.047106937,,2023-04-29 12:17:59.68,-1.3974084,0.30867413,9.303294,2023-04-29 12:18:00.535,0.03297,-0.023201112,0.064718895
,,2023-04-29 12:18:00.236,9.891431,2.2896388,1.346001,2023-04-29 12:18:00.287,0.014463542,0.035060816,0.048172202,,2023-04-29 12:17:59.68,-1.4213367,0.44985065,9.363115,2023-04-29 12:18:00.535,0.04396,-0.02075889,0.06594
,,2023-04-29 12:18:00.247,9.896221,2.327959,1.3268409,2023-04-29 12:18:00.311,0.013398277,0.03559345,0.04604167,,2023-04-29 12:17:59.683,-1.4093726,0.552742,9.360723,2023-04-29 12:18:00.58,0.047623336,-0.013432222,0.054950003
,,2023-04-29 12:18:00.265,9.896221,2.3135889,1.3603711,2023-04-29 12:18:00.338,0.014463542,0.02707133,0.047106937,,2023-04-29 12:17:59.683,-1.3830515,0.6436693,9.35833,2023-04-29 12:18:00.584,0.057392225,-0.008547778,0.05372889
,,2023-04-29 12:18:00.286,9.8866415,2.2848487,1.3843213,2023-04-29 12:18:00.347,0.019789863,0.025473434,0.05243326,,2023-04-29 12:17:59.724,-1.4189439,0.73459655,9.329616,2023-04-29 12:18:00.624,0.07448778,-0.0012211112,0.05372889
,,2023-04-29 12:18:00.308,9.862691,2.2608986,1.3891114,2023-04-29 12:18:00.385,0.02085821,0.03293077,0.060425747,,2023-04-29 12:17:59.726,-1.5050855,0.72741807,9.284152,2023-04-29 12:18:00.626,0.06349778,0.007326667,0.048844445
,,2023-04-29 12:18:00.337,9.85311,2.2369483,1.3747413,2023-04-29 12:18:00.396,0.003281345,0.03559393,0.062023647,,2023-04-29 12:17:59.726,-1.6486548,0.62452674,9.274581,2023-04-29 12:18:00.671,0.048844445,0.0012211112,0.047623336
,,2023-04-29 12:18:00.347,9.80521,2.208208,1.3891114,2023-04-29 12:18:00.412,-0.020687105,0.03399603,0.062556274,,2023-04-29 12:17:59.77,-1.7659031,0.526421,9.353543,2023-04-29 12:18:00.671,0.054950003,0.0061055557,0.06105556
,,2023-04-29 12:18:00.385,9.85311,2.189048,1.3891114,2023-04-29 12:18:00.43,-0.030274484,0.03239814,0.06894786,,2023-04-29 12:17:59.771,-1.8711873,0.38524446,9.413364,2023-04-29 12:18:00.714,0.048844445,0.0012211112,0.06960334
,,2023-04-29 12:18:00.395,9.963282,2.179468,1.3603711,2023-04-29 12:18:00.462,-0.014828151,0.03239814,0.07214365,,2023-04-29 12:17:59.771,-1.9046868,0.28235307,9.482756,2023-04-29 12:18:00.719,0.04396,-0.0024422223,0.06349778
,,2023-04-29 12:18:00.412,9.987232,2.1507277,1.3986914,2023-04-29 12:18:00.484,0.0054118736,0.038789723,0.06948049,,2023-04-29 12:17:59.771,-1.8927227,0.24885355,9.525827,2023-04-29 12:18:00.719,0.05617111,0.0012211112,0.064718895
,,2023-04-29 12:18:00.429,9.958491,2.1315675,1.4274317,2023-04-29 12:18:00.495,-0.0020449774,0.03985499,0.06415417,,2023-04-29 12:17:59.814,-1.942972,0.27996024,9.52822,2023-04-29 12:18:00.767,0.048844445,0.0024422223,0.06227667
,,2023-04-29 12:18:00.461,9.939331,2.1411476,1.4370118,2023-04-29 12:18:00.512,-0.01749131,0.03293077,0.06095838,,2023-04-29 12:17:59.814,-1.8831514,0.40677986,9.549755,2023-04-29 12:18:00.803,0.03052778,0.008547778,0.05617111
,,2023-04-29 12:18:00.483,9.948912,2.1603076,1.4370118,2023-04-29 12:18:00.532,-0.015360784,0.034528665,0.059893116,,2023-04-29 12:17:59.816,-1.8329022,0.4881358,9.5760765,2023-04-29 12:18:00.804,0.012211111,0.007326667,0.05250778
,,2023-04-29 12:18:00.494,9.944121,2.1411476,1.465752,2023-04-29 12:18:00.562,0.0016834482,0.045181308,0.06095838,,2023-04-29 12:17:59.817,-1.8065811,0.5312066,9.609575,2023-04-29 12:18:00.806,0.013432222,0.0012211112,0.047623336
,,2023-04-29 12:18:00.512,9.968072,2.083667,1.456172,2023-04-29 12:18:00.583,0.010738196,0.059562378,0.05829522,,2023-04-29 12:17:59.817,-1.7682959,0.5766702,9.647861,2023-04-29 12:18:00.862,0.012211111,-0.0048844446,0.05617111
,,2023-04-29 12:18:00.531,9.987232,2.0405567,1.4178516,2023-04-29 12:18:00.601,0.0059445063,0.064356074,0.054566793,,2023-04-29 12:17:59.86,-1.7802601,0.6029913,9.667004,2023-04-29 12:18:00.862,0.03174889,-0.009768889,0.057392225
,,2023-04-29 12:18:00.561,9.968072,2.0453467,1.4322218,2023-04-29 12:18:00.613,0.004346609,0.06275818,0.050305735,,2023-04-29 12:17:59.861,-1.8185452,0.57188463,9.662218,2023-04-29 12:18:00.865,0.05006556,-0.015874445,0.06227667
,,2023-04-29 12:18:00.577,9.948912,2.083667,1.4465919,2023-04-29 12:18:00.654,0.011803461,0.06222554,0.043381516,,2023-04-29 12:17:59.862,-1.8640088,0.47377887,9.635897,2023-04-29 12:18:00.895,0.037854444,-0.024422223,0.064718895
,,2023-04-29 12:18:00.6,9.881851,2.0980372,1.4801221,2023-04-29 12:18:00.655,0.014466622,0.052638162,0.035392035,,2023-04-29 12:17:59.905,-1.8999012,0.4211368,9.578469,2023-04-29 12:18:00.896,0.024422223,-0.02198,0.06960334
,,2023-04-29 12:18:00.612,9.891431,2.1076174,1.5376027,2023-04-29 12:18:00.683,0.0091403,0.030800238,0.02686992,,2023-04-29 12:17:59.905,-1.9238294,0.40438703,9.533006,2023-04-29 12:18:00.942,0.025643334,-0.018316668,0.064718895
,,2023-04-29 12:18:00.654,9.915381,2.088457,1.5519727,2023-04-29 12:18:00.695,0.02085821,0.012690744,0.02047833,,2023-04-29 12:17:59.905,-1.902294,0.4331009,9.499506,2023-04-29 12:18:00.943,0.014653334,-0.01099,0.06349778
,,2023-04-29 12:18:00.654,9.929751,2.064507,1.5376027,2023-04-29 12:18:00.712,0.048555084,0.0062991576,0.017282538,,2023-04-29 12:17:59.906,-1.902294,0.47377887,9.485149,2023-04-29 12:18:00.983,0.0061055557,-0.0061055557,0.05250778
,,2023-04-29 12:18:00.683,9.896221,2.0453467,1.590293,2023-04-29 12:18:00.744,0.058142465,0.011092848,0.017282538,,2023-04-29 12:17:59.95,-1.8687944,0.47856453,9.518648,2023-04-29 12:18:00.987,-0.0012211112,-0.007326667,0.05006556
,,2023-04-29 12:18:00.695,9.867481,1.9974464,1.585503,2023-04-29 12:18:00.768,0.055479303,0.015353906,0.016217273,,2023-04-29 12:17:59.951,-1.8281165,0.50009996,9.530613,2023-04-29 12:18:01.031,0.0012211112,0,0.058613338
,,2023-04-29 12:18:00.711,9.8866415,1.9974464,1.5567628,2023-04-29 12:18:00.779,0.05920773,0.01908233,0.016749905,,2023-04-29 12:17:59.951,-1.7898313,0.48095736,9.564112,2023-04-29 12:18:01.032,0.012211111,-0.0012211112,0.05372889
,,2023-04-29 12:18:00.743,9.939331,2.0022364,1.5328126,2023-04-29 12:18:00.797,0.06293615,0.016951801,0.015152008,,2023-04-29 12:17:59.954,-1.7682959,0.41635114,9.583255,2023-04-29 12:18:01.075,0.009768889,-0.007326667,0.06349778
,,2023-04-29 12:18:00.768,9.953702,1.9878663,1.5136524,2023-04-29 12:18:00.832,0.06506668,0.016951801,0.015684642,,2023-04-29 12:17:59.955,-1.8400806,0.37806597,9.585648,2023-04-29 12:18:01.083,0.0061055557,-0.007326667,0.068382226
,,2023-04-29 12:18:00.779,9.939331,2.0022364,1.5184424,2023-04-29 12:18:00.844,0.05974036,0.014288641,0.009825686,,2023-04-29 12:17:59.994,-1.7874385,0.50488555,9.564112,2023-04-29 12:18:01.119,-0.014653334,-0.014653334,0.07570889
,,2023-04-29 12:18:00.796,9.905801,2.0261867,1.5567628,2023-04-29 12:18:00.866,0.061338257,0.0041686287,0.0029014675,,2023-04-29 12:17:59.996,-1.6965113,0.59342,9.47797,2023-04-29 12:18:01.122,-0.02198,-0.018316668,0.07448778
,,2023-04-29 12:18:00.827,9.924961,2.0357666,1.5376027,2023-04-29 12:18:00.879,0.07784986,-0.0048861196,0.003966732,,2023-04-29 12:17:59.996,-1.7778672,0.64606214,9.389436,2023-04-29 12:18:01.165,0.0036633336,-0.0024422223,0.07204556
,,2023-04-29 12:18:00.843,9.924961,2.0166066,1.575923,2023-04-29 12:18:00.904,0.09223093,-0.0070166485,0.006629893,,2023-04-29 12:18:00.039,-1.7084754,0.701097,9.363115,2023-04-29 12:18:01.169,0.013432222,0.012211111,0.07693
,,2023-04-29 12:18:00.865,9.910591,2.0213966,1.590293,2023-04-29 12:18:00.918,0.087437235,-0.0022229583,0.004499364,,2023-04-29 12:18:00.039,-1.68694,0.72023964,9.312865,2023-04-29 12:18:01.21,-0.0061055557,0.01099,0.07693
,,2023-04-29 12:18:00.879,9.896221,2.059717,1.5807129,2023-04-29 12:18:00.936,0.07305617,0.0020380996,0.0034340997,,2023-04-29 12:18:00.039,-1.68694,0.7082755,9.3104725,2023-04-29 12:18:01.215,-0.0012211112,0.01099,0.081814446
,,2023-04-29 12:18:00.903,9.901011,2.069297,1.5471827,2023-04-29 12:18:00.964,0.06719721,0.0062991576,0.004499364,,2023-04-29 12:18:00.042,-1.7300107,0.7178468,9.3200445,2023-04-29 12:18:01.254,0.0024422223,0.013432222,0.08059334
,,2023-04-29 12:18:00.917,9.958491,2.0261867,1.5376027,2023-04-29 12:18:00.979,0.07092564,0.014821273,0.0087604225,,2023-04-29 12:18:00.084,-1.7156538,0.72502524,9.377472,2023-04-29 12:18:01.261,-0.017095556,0.0024422223,0.08792
,,2023-04-29 12:18:00.935,9.948912,2.0118165,1.5280225,2023-04-29 12:18:01.011,0.072523534,0.02121286,0.0146193765,,2023-04-29 12:18:00.085,-1.7108682,0.74416786,9.38465,2023-04-29 12:18:01.304,-0.01099,0.0048844446,0.091583334
,,2023-04-29 12:18:00.963,9.910591,2.0213966,1.5423926,2023-04-29 12:18:01.033,0.07625196,0.022810755,0.018880434,,2023-04-29 12:18:00.088,-1.7324036,0.7393822,9.41815,2023-04-29 12:18:01.305,0.009768889,0.008547778,0.085477784
,,2023-04-29 12:18:00.978,9.8866415,2.0261867,1.5280225,2023-04-29 12:18:01.045,0.082643546,0.02121286,0.023674123,,2023-04-29 12:18:00.089,-1.753939,0.6939186,9.45165,2023-04-29 12:18:01.345,0.007326667,0.01099,0.08669889
,,2023-04-29 12:18:01.01,9.881851,2.0213966,1.5519727,2023-04-29 12:18:01.067,0.08583934,0.01162548,0.028467815,,2023-04-29 12:18:00.089,-1.7587247,0.65324056,9.487542,2023-04-29 12:18:01.348,-0.0024422223,0.009768889,0.09036223
,,2023-04-29 12:18:01.032,9.872271,2.0357666,1.5567628,2023-04-29 12:18:01.094,0.08690461,0.003103364,0.033261504,,2023-04-29 12:18:00.13,-1.7754744,0.66999036,9.485149,2023-04-29 12:18:01.395,-0.018316668,0.01099,0.091583334
,,2023-04-29 12:18:01.045,9.862691,2.0405567,1.5950831,2023-04-29 12:18:01.111,0.087437235,-0.0054187514,0.038055196,,2023-04-29 12:18:00.13,-1.8257236,0.77766734,9.4229355,2023-04-29 12:18:01.397,-0.008547778,0.018316668,0.09402556
,,2023-04-29 12:18:01.066,9.877061,2.0501368,1.5998731,2023-04-29 12:18:01.127,0.08424144,-0.013940866,0.042316254,,2023-04-29 12:18:00.131,-1.861616,0.8877372,9.396614,2023-04-29 12:18:01.44,0.02075889,0.028085556,0.08792
,,2023-04-29 12:18:01.093,9.881851,2.0501368,1.590293,2023-04-29 12:18:01.146,0.0719909,-0.016604029,0.040718358,,2023-04-29 12:18:00.173,-1.8735801,0.9523434,9.408579,2023-04-29 12:18:01.441,0.0048844446,0.039075557,0.10013112
,,2023-04-29 12:18:01.11,9.881851,2.078877,1.5950831,2023-04-29 12:18:01.16,0.076784596,-0.008614545,0.033261504,,2023-04-29 12:18:00.174,-1.8640088,0.9284152,9.387043,2023-04-29 12:18:01.481,-0.046402223,0.04151778,0.09402556
,,2023-04-29 12:18:01.126,9.929751,2.064507,1.5711329,2023-04-29 12:18:01.193,0.0916983,0.005766525,0.024206758,,2023-04-29 12:18:00.174,-1.835295,0.89730847,9.406186,2023-04-29 12:18:01.485,-0.042738892,0.05250778,0.09402556
,,2023-04-29 12:18:01.146,9.977652,2.0453467,1.5519727,2023-04-29 12:18:01.211,0.08530671,-0.00062506157,0.02047833,,2023-04-29 12:18:00.177,-1.8137596,0.8063812,9.420543,2023-04-29 12:18:01.524,-0.01099,0.06349778,0.08792
,,2023-04-29 12:18:01.159,9.929751,2.0213966,1.6142433,2023-04-29 12:18:01.229,0.07571933,-0.0150061315,0.021543596,,2023-04-29 12:18:00.219,-1.7802601,0.72263247,9.45165,2023-04-29 12:18:01.528,-0.014653334,0.06960334,0.09646778
,,2023-04-29 12:18:01.192,9.877061,2.064507,1.5998731,2023-04-29 12:18:01.244,0.09702462,-0.025658777,0.02686992,,2023-04-29 12:18:00.219,-1.7587247,0.7106683,9.434899,2023-04-29 12:18:01.571,-0.034191113,0.07204556,0.09280445
,,2023-04-29 12:18:01.209,9.83874,2.1028273,1.590293,2023-04-29 12:18:01.275,0.13004781,-0.03364826,0.031663608,,2023-04-29 12:18:00.221,-1.8041883,0.74895346,9.399008,2023-04-29 12:18:01.576,-0.017095556,0.078151114,0.08669889
,,2023-04-29 12:18:01.228,9.857901,2.064507,1.5567628,2023-04-29 12:18:01.294,0.12312359,-0.044300906,0.030065712,,2023-04-29 12:18:00.221,-1.8065811,0.7704889,9.415757,2023-04-29 12:18:01.618,-0.012211111,0.08303556,0.09402556
,,2023-04-29 12:18:01.243,9.829161,2.088457,1.585503,2023-04-29 12:18:01.311,0.118329905,-0.060279872,0.02740255,,2023-04-29 12:18:00.221,-1.7898313,0.7728817,9.4229355,2023-04-29 12:18:01.619,-0.025643334,0.081814446,0.10013112
,,2023-04-29 12:18:01.275,9.83874,2.1076174,1.5567628,2023-04-29 12:18:01.327,0.12898254,-0.06826936,0.022608861,,2023-04-29 12:18:00.31,-1.8089739,0.7752745,9.427721,2023-04-29 12:18:01.659,-0.007326667,0.08303556,0.11966889
,,2023-04-29 12:18:01.293,9.857901,2.088457,1.5519727,2023-04-29 12:18:01.343,0.14336362,-0.07146515,0.02047833,,2023-04-29 12:18:00.311,-1.7874385,0.7752745,9.401401,2023-04-29 12:18:01.663,0.009768889,0.07693,0.13310112
,,2023-04-29 12:18:01.311,9.891431,2.0980372,1.585503,2023-04-29 12:18:01.376,0.16839734,-0.06613883,0.026337285,,2023-04-29 12:18:00.312,-1.8065811,0.7848458,9.387043,2023-04-29 12:18:01.703,0.018316668,0.07693,0.13432223
,,2023-04-29 12:18:01.327,9.987232,2.0980372,1.5280225,2023-04-29 12:18:01.396,0.16786471,-0.065073565,0.030598342,,2023-04-29 12:18:00.313,-1.820938,0.74416786,9.389436,2023-04-29 12:18:01.704,0.019537779,0.07326667,0.1526389
,,2023-04-29 12:18:01.343,10.015972,2.1363575,1.5328126,2023-04-29 12:18:01.409,0.14283098,-0.07146515,0.025272023,,2023-04-29 12:18:00.314,-1.7874385,0.6963114,9.4636135,2023-04-29 12:18:01.708,-0.01099,0.059834447,0.16118668
,,2023-04-29 12:18:01.375,10.0063925,2.1650977,1.4801221,2023-04-29 12:18:01.431,0.12472149,-0.064008296,0.016749905,,2023-04-29 12:18:00.354,-1.7826529,0.66041905,9.499506,2023-04-29 12:18:01.796,-0.054950003,0.04151778,0.16240779
,,2023-04-29 12:18:01.395,10.011182,2.1603076,1.4034815,2023-04-29 12:18:01.445,0.11087306,-0.052290387,0.0055646286,,2023-04-29 12:18:00.354,-1.7443677,0.6795616,9.501899,2023-04-29 12:18:01.797,-0.03297,0.039075557,0.15752333
,,2023-04-29 12:18:01.409,10.054293,2.1267774,1.341211,2023-04-29 12:18:01.466,0.0916983,-0.06560619,-0.0146753965,,2023-04-29 12:18:00.355,-1.713261,0.7393822,9.509077,2023-04-29 12:18:01.838,-0.008547778,0.06227667,0.14775445
,,2023-04-29 12:18:01.43,10.078242,2.0309765,1.3507911,2023-04-29 12:18:01.494,0.08530671,-0.1119452,-0.02745857,,2023-04-29 12:18:00.356,-1.7060826,0.7920243,9.487542,2023-04-29 12:18:01.85,-0.007326667,0.07204556,0.13432223
,,2023-04-29 12:18:01.444,10.116563,1.9878663,1.3268409,2023-04-29 12:18:01.512,0.13590677,-0.13378312,-0.03491542,,2023-04-29 12:18:00.404,-1.7300107,0.83748794,9.458828,2023-04-29 12:18:01.851,-0.019537779,0.06960334,0.12699556
,,2023-04-29 12:18:01.465,10.097403,1.9303858,1.1975098,2023-04-29 12:18:01.526,0.2205953,-0.12099995,-0.038643844,,2023-04-29 12:18:00.404,-1.7371893,0.85184485,9.425328,2023-04-29 12:18:01.889,-0.026864445,0.06349778,0.12699556
,,2023-04-29 12:18:01.493,10.164463,1.9351759,1.1879297,2023-04-29 12:18:01.563,0.27758694,-0.10129255,-0.041307006,,2023-04-29 12:18:00.404,-1.7252251,0.8877372,9.401401,2023-04-29 12:18:01.935,0.007326667,0.059834447,0.13432223
,,2023-04-29 12:18:01.511,10.169253,2.0501368,1.2166699,2023-04-29 12:18:01.575,0.2770543,-0.123663105,-0.052492283,,2023-04-29 12:18:00.444,-1.7300107,0.9068798,9.399008,2023-04-29 12:18:01.939,0,0.048844445,0.13676445
,,2023-04-29 12:18:01.525,10.044712,2.074087,1.22146,2023-04-29 12:18:01.597,0.28823957,-0.17745896,-0.062079664,,2023-04-29 12:18:00.445,-1.7324036,0.85184485,9.420543,2023-04-29 12:18:01.975,-0.04151778,0.026864445,0.13920668
,,2023-04-29 12:18:01.562,10.001602,1.949546,1.0202783,2023-04-29 12:18:01.61,0.34363332,-0.19769898,-0.06687336,,2023-04-29 12:18:00.446,-1.7180467,0.77766734,9.391829,2023-04-29 12:18:01.984,-0.068382226,0.012211111,0.1526389
,,2023-04-29 12:18:01.574,9.958491,1.829795,0.8286768,2023-04-29 12:18:01.631,0.3915702,-0.21208005,-0.07539547,,2023-04-29 12:18:00.448,-1.7108682,0.73459655,9.449257,2023-04-29 12:18:01.984,-0.089141116,0.0012211112,0.16362889
,,2023-04-29 12:18:01.597,9.929751,1.839375,0.732876,2023-04-29 12:18:01.649,0.3958313,-0.22166742,-0.09190707,,2023-04-29 12:18:00.449,-1.7156538,0.7178468,9.468399,2023-04-29 12:18:01.985,-0.07693,-0.012211111,0.16485001
,,2023-04-29 12:18:01.609,9.920172,1.9351759,0.63707525,2023-04-29 12:18:01.681,0.3958313,-0.22592849,-0.09936392,,2023-04-29 12:18:00.449,-1.7084754,0.74416786,9.513863,2023-04-29 12:18:01.988,-0.068382226,-0.017095556,0.17950334
,,2023-04-29 12:18:01.63,9.963282,1.954336,0.49337405,2023-04-29 12:18:01.697,0.430985,-0.20249267,-0.089776546,,2023-04-29 12:18:00.489,-1.7419748,0.7968099,9.49472,2023-04-29 12:18:01.989,-0.06105556,-0.0061055557,0.17950334
,,2023-04-29 12:18:01.648,9.929751,1.8585353,0.2778223,2023-04-29 12:18:01.715,0.4325829,-0.15775156,-0.07592811,,2023-04-29 12:18:00.49,-1.7491534,0.8422736,9.509077,2023-04-29 12:18:02.019,-0.070824444,0.0012211112,0.19171445
,,2023-04-29 12:18:01.681,9.944121,1.8872755,0.34967285,2023-04-29 12:18:01.731,0.3814502,-0.11514099,-0.065808095,,2023-04-29 12:18:00.491,-1.7300107,0.88295156,9.518648,2023-04-29 12:18:02.066,-0.098910004,0.009768889,0.20392556
,,2023-04-29 12:18:01.696,9.992022,1.8441651,0.38320315,2023-04-29 12:18:01.748,0.32658908,0.013223377,-0.050894387,,2023-04-29 12:18:00.492,-1.727618,0.90448695,9.552148,2023-04-29 12:18:02.075,-0.11112112,0.01099,0.17950334
,,2023-04-29 12:18:01.714,10.083033,1.7483643,0.34009278,2023-04-29 12:18:01.777,0.3100775,0.1639583,-0.012544868,,2023-04-29 12:18:00.534,-1.7611175,0.8805587,9.521041,2023-04-29 12:18:02.077,-0.03174889,0.014653334,0.117226675
,,2023-04-29 12:18:01.73,10.279425,1.7387843,0.05748047,2023-04-29 12:18:01.805,0.31327328,0.14478354,0.017282538,,2023-04-29 12:18:00.534,-1.7659031,0.8111669,9.47797,2023-04-29 12:18:02.116,0.059834447,0.026864445,0.12211112
,,2023-04-29 12:18:01.747,10.312955,1.9926564,0.023950197,2023-04-29 12:18:01.819,0.21953003,0.102172956,-0.016805924,,2023-04-29 12:18:00.536,-1.7898313,0.7680961,9.434899,2023-04-29 12:18:02.117,0.02198,0.014653334,0.106236674
,,2023-04-29 12:18:01.777,9.944121,2.1411476,0.732876,2023-04-29 12:18:01.832,0.01393399,0.12028246,-0.06793862,,2023-04-29 12:18:00.537,-1.7826529,0.7968099,9.410972,2023-04-29 12:18:02.157,-0.06227667,0,0.07448778
,,2023-04-29 12:18:01.801,9.867481,2.2321582,0.82388675,2023-04-29 12:18:01.866,-0.062765054,0.13839196,-0.08924391,,2023-04-29 12:18:00.578,-1.7778672,0.85184485,9.387043,2023-04-29 12:18:02.2,-0.07204556,-0.0048844446,0.034191113
,,2023-04-29 12:18:01.818,10.217154,2.1507277,0.23950197,2023-04-29 12:18:01.875,0.09755725,0.12827194,-0.08231969,,2023-04-29 12:18:00.582,-1.7635103,0.87338024,9.343972,2023-04-29 12:18:02.2,-0.0036633336,0.0048844446,0.009768889
,,2023-04-29 12:18:01.83,10.183623,2.1028273,0.10538086,2023-04-29 12:18:01.896,0.3047476,0.1367935,-0.055691555,,2023-04-29 12:18:00.583,-1.7491534,0.8781659,9.322437,2023-04-29 12:18:02.202,0.03297,0.014653334,0.014653334
,,2023-04-29 12:18:01.865,9.977652,2.2848487,0.5748047,2023-04-29 12:18:01.913,0.33564028,0.10163977,-0.046636812,,2023-04-29 12:18:00.583,-1.7300107,0.8662018,9.346365,2023-04-29 12:18:02.249,-0.03052778,0.018316668,0.059834447
,,2023-04-29 12:18:01.874,9.833951,2.6584718,0.9148975,2023-04-29 12:18:01.931,0.24775597,0.010027024,-0.07593159,,2023-04-29 12:18:00.624,-1.7108682,0.87338024,9.372686,2023-04-29 12:18:02.249,-0.10501556,0.024422223,0.10135223
,,2023-04-29 12:18:01.895,9.833951,2.8500733,1.1448194,2023-04-29 12:18:01.957,0.23124437,-0.073063605,-0.10682426,,2023-04-29 12:18:00.625,-1.6797615,0.8877372,9.365508,2023-04-29 12:18:02.29,-0.12943779,0.03174889,0.1306589
,,2023-04-29 12:18:01.912,9.848321,2.8261232,1.0538087,2023-04-29 12:18:01.975,0.24296229,-0.06933518,-0.095638976,,2023-04-29 12:18:00.625,-1.698904,0.9212367,9.365508,2023-04-29 12:18:02.334,-0.11844778,0.03052778,0.14042778
,,2023-04-29 12:18:01.929,9.85311,2.8692336,0.9627979,2023-04-29 12:18:01.999,0.16253482,-0.0267246,-0.06421368,,2023-04-29 12:18:00.627,-1.7156538,0.930808,9.348758,2023-04-29 12:18:02.334,-0.08303556,0.039075557,0.14775445
,,2023-04-29 12:18:01.956,9.862691,2.931504,0.9867481,2023-04-29 12:18:02.011,-0.0047117053,-0.008082471,-0.055158928,,2023-04-29 12:18:00.669,-1.7180467,0.9619147,9.332008,2023-04-29 12:18:02.341,-0.078151114,0.048844445,0.15996556
,,2023-04-29 12:18:01.974,9.881851,2.936294,0.9484278,2023-04-29 12:18:02.045,-0.124553956,-0.010213,-0.05036524,,2023-04-29 12:18:00.669,-1.7060826,0.91405827,9.312865,2023-04-29 12:18:02.389,-0.16118668,0.035412222,0.16729222
,,2023-04-29 12:18:01.998,9.982442,2.811753,0.79035646,2023-04-29 12:18:02.062,-0.12561922,-0.024061438,-0.042908385,,2023-04-29 12:18:00.672,-1.7156538,0.8662018,9.312865,2023-04-29 12:18:02.391,-0.22224224,0.0048844446,0.13920668
,,2023-04-29 12:18:02.01,10.035132,2.5866213,0.82388675,2023-04-29 12:18:02.08,-0.1053792,-0.037909877,-0.055691555,,2023-04-29 12:18:00.672,-1.7060826,0.8446664,9.336794,2023-04-29 12:18:02.425,-0.20881,0.0048844446,0.12455334
,,2023-04-29 12:18:02.043,9.968072,2.323169,1.0825489,2023-04-29 12:18:02.095,-0.16556664,-0.025126703,-0.072735794,,2023-04-29 12:18:00.714,-1.698904,0.8422736,9.329616,2023-04-29 12:18:02.468,-0.17950334,0.013432222,0.089141116
,,2023-04-29 12:18:02.06,9.944121,2.2704787,1.1448194,2023-04-29 12:18:02.123,-0.20924248,-0.04270357,-0.09510634,,2023-04-29 12:18:00.716,-1.7324036,0.8566305,9.346365,2023-04-29 12:18:02.469,-0.18683001,0.009768889,0.05372889
,,2023-04-29 12:18:02.08,9.963282,2.3998096,0.8334668,2023-04-29 12:18:02.147,-0.18580666,-0.08478151,-0.123335846,,2023-04-29 12:18:00.718,-1.7443677,0.8662018,9.355937,2023-04-29 12:18:02.515,-0.24910668,-0.015874445,0.057392225
,,2023-04-29 12:18:02.094,9.867481,2.5530908,0.79993653,2023-04-29 12:18:02.157,-0.165034,-0.09330363,-0.14996746,,2023-04-29 12:18:00.718,-1.7611175,0.85902333,9.35833,2023-04-29 12:18:02.518,-0.40052447,-0.07693,0.10745778
,,2023-04-29 12:18:02.122,9.77168,2.5818312,0.9580079,2023-04-29 12:18:02.178,-0.15384872,-0.087977305,-0.17127274,,2023-04-29 12:18:00.719,-1.7587247,0.89491564,9.360723,2023-04-29 12:18:02.559,-0.65451556,-0.14653334,0.23689556
,,2023-04-29 12:18:02.146,9.862691,2.5004005,0.92926764,2023-04-29 12:18:02.201,-0.13680449,-0.10235838,-0.18352328,,2023-04-29 12:18:00.759,-1.7515461,0.9092726,9.391829,2023-04-29 12:18:02.566,-1.0416079,-0.22590557,0.42128336
,,2023-04-29 12:18:02.157,9.953702,2.4045997,0.728086,2023-04-29 12:18:02.223,-0.13147818,-0.109815225,-0.18884961,,2023-04-29 12:18:00.761,-1.7563318,0.96909314,9.413364,2023-04-29 12:18:02.623,-1.5300523,-0.27963445,0.61788225
,,2023-04-29 12:18:02.177,9.881851,2.3614893,0.53169435,2023-04-29 12:18:02.243,-0.15544662,-0.08158572,-0.1787296,,2023-04-29 12:18:00.768,-1.7467605,1.0456635,9.4229355,2023-04-29 12:18:02.624,-1.9952956,-0.28085557,0.78029
,,2023-04-29 12:18:02.2,9.800421,2.3566992,0.41194338,2023-04-29 12:18:02.273,-0.21829723,-0.04270357,-0.15050009,,2023-04-29 12:18:00.769,-1.727618,1.0983056,9.420543,2023-04-29 12:18:02.65,-2.4629812,-0.23445335,0.8877478
,,2023-04-29 12:18:02.222,9.891431,2.3710694,0.37362307,2023-04-29 12:18:02.291,-0.2710278,-0.034181453,-0.12386849,,2023-04-29 12:18:00.77,-1.7108682,1.1174482,9.420543,2023-04-29 12:18:02.657,-2.92334,-0.14775445,1.064809
,,2023-04-29 12:18:02.242,10.035132,2.3135889,0.27303225,2023-04-29 12:18:02.313,-0.27369097,-0.037909877,-0.10522636,,2023-04-29 12:18:00.804,-1.6941184,1.1294123,9.415757,2023-04-29 12:18:02.699,-3.3043268,-0.058613338,1.3493278
,,2023-04-29 12:18:02.272,10.140513,2.198628,0.3544629,2023-04-29 12:18:02.324,-0.22575407,-0.012876161,-0.09883477,,2023-04-29 12:18:00.805,-1.713261,1.1006985,9.387043,2023-04-29 12:18:02.703,-3.5644236,0.12821667,1.6826912
,,2023-04-29 12:18:02.291,10.111773,1.9974464,0.5556446,2023-04-29 12:18:02.341,-0.14905503,0.018016506,-0.10629162,,2023-04-29 12:18:00.805,-1.6965113,1.0648061,9.387043,2023-04-29 12:18:02.742,-3.5864034,0.28940335,1.9305768
,,2023-04-29 12:18:02.312,10.159674,1.7962648,0.7568262,2023-04-29 12:18:02.364,-0.053181235,0.034528106,-0.123335846,,2023-04-29 12:18:00.852,-1.6845472,1.052842,9.399008,2023-04-29 12:18:02.743,-3.3653824,0.42250445,2.1210701
,,2023-04-29 12:18:02.324,10.293795,1.6765138,0.79993653,2023-04-29 12:18:02.377,0.049084153,0.09365028,-0.13771692,,2023-04-29 12:18:00.855,-1.6821543,1.0600204,9.437292,2023-04-29 12:18:02.746,-3.0833056,0.53973114,2.2663822
,,2023-04-29 12:18:02.34,10.341695,1.7675245,0.78556645,2023-04-29 12:18:02.41,0.11353265,0.211362,-0.12280322,,2023-04-29 12:18:00.862,-1.7012969,1.079163,9.47797,2023-04-29 12:18:02.784,-2.6632435,0.5971234,2.4983935
,,2023-04-29 12:18:02.364,10.341695,1.9687061,0.732876,2023-04-29 12:18:02.422,0.17318746,0.22893886,-0.10895478,,2023-04-29 12:18:00.863,-1.7036897,1.0695918,9.492328,2023-04-29 12:18:02.785,-2.2382967,0.6581789,2.6522534
,,2023-04-29 12:18:02.376,10.183623,2.1698878,0.44547364,2023-04-29 12:18:02.441,0.22591805,0.18899146,-0.094573714,,2023-04-29 12:18:00.865,-1.7156538,1.0313065,9.516255,2023-04-29 12:18:02.789,-2.1186278,0.72900337,2.688887
,,2023-04-29 12:18:02.409,9.891431,2.308799,0.8430469,2023-04-29 12:18:02.46,0.22751595,0.18526302,-0.08232317,,2023-04-29 12:18:00.865,-1.7012969,1.0049855,9.540184,2023-04-29 12:18:02.831,-1.9403456,0.8230289,2.7487211
,,2023-04-29 12:18:02.421,9.80521,2.2129982,1.3220508,2023-04-29 12:18:02.484,0.25361493,0.19698094,-0.08019264,,2023-04-29 12:18:00.894,-1.698904,1.0193424,9.480363,2023-04-29 12:18:02.831,-1.416489,0.9048434,2.646148
,,2023-04-29 12:18:02.441,9.81958,2.059717,1.0585986,2023-04-29 12:18:02.498,0.3553477,0.1847304,-0.08658423,,2023-04-29 12:18:00.895,-1.7515461,1.0600204,9.432507,2023-04-29 12:18:02.836,-0.6679478,0.9927634,2.4129157
,,2023-04-29 12:18:02.459,9.79084,2.069297,0.8286768,2023-04-29 12:18:02.521,0.4677331,0.16928406,-0.09297582,,2023-04-29 12:18:00.895,-1.7898313,1.079163,9.372686,2023-04-29 12:18:02.888,-0.089141116,1.0562612,2.163809
,,2023-04-29 12:18:02.483,9.7142,2.2465284,1.0346485,2023-04-29 12:18:02.542,0.53218156,0.16715354,-0.09510634,,2023-04-29 12:18:00.897,-1.7970098,1.0839486,9.327223,2023-04-29 12:18:02.889,0.13310112,1.0342811,1.9501145
,,2023-04-29 12:18:02.497,9.642349,2.5243506,1.0825489,2023-04-29 12:18:02.562,0.5939669,0.17674091,-0.07433369,,2023-04-29 12:18:00.897,-1.8137596,1.0671989,9.3104725,2023-04-29 12:18:02.925,0.2503278,0.9842156,1.7376412
,,2023-04-29 12:18:02.521,9.704619,2.682422,0.9867481,2023-04-29 12:18:02.581,0.6754597,0.1634251,-0.056756824,,2023-04-29 12:18:00.942,-1.7970098,1.0887343,9.303294,2023-04-29 12:18:02.965,0.13432223,0.88896894,1.5141778
,,2023-04-29 12:18:02.541,9.637559,2.7351124,0.89573735,2023-04-29 12:18:02.601,0.70635235,0.16608827,-0.055691555,,2023-04-29 12:18:00.943,-1.7874385,1.1030912,9.300901,2023-04-29 12:18:02.969,-0.23323223,0.70336,1.3261267
,,2023-04-29 12:18:02.561,9.69504,2.7399025,1.0729688,2023-04-29 12:18:02.622,0.6823839,0.1831325,-0.06900737,,2023-04-29 12:18:00.943,-1.8041883,1.1006985,9.276974,2023-04-29 12:18:02.978,-0.54950005,0.49699223,1.1905833
,,2023-04-29 12:18:02.581,9.929751,2.6153615,1.0298585,2023-04-29 12:18:02.662,0.670666,0.19165461,-0.088714756,,2023-04-29 12:18:00.943,-1.7706888,1.0887343,9.265009,2023-04-29 12:18:03.018,-0.6349778,0.36389112,1.0990001
,,2023-04-29 12:18:02.599,9.948912,2.5291407,0.8286768,2023-04-29 12:18:02.663,0.737245,0.21189463,-0.09510634,,2023-04-29 12:18:00.984,-1.7371893,1.0839486,9.267402,2023-04-29 12:18:03.019,-0.65085226,0.26864445,1.07702
,,2023-04-29 12:18:02.622,9.920172,2.43813,0.76161623,2023-04-29 12:18:02.683,0.84377146,0.24172205,-0.08179054,,2023-04-29 12:18:00.985,-1.7108682,1.1030912,9.286545,2023-04-29 12:18:03.066,-0.63009334,0.17095557,1.0489345
,,2023-04-29 12:18:02.661,9.939331,2.3806496,0.8047266,2023-04-29 12:18:02.702,0.8512283,0.2587663,-0.04929997,,2023-04-29 12:18:00.987,-1.7012969,1.1078769,9.3200445,2023-04-29 12:18:03.069,-0.5690378,0.036633335,1.0232911
,,2023-04-29 12:18:02.663,9.992022,2.5387208,0.9627979,2023-04-29 12:18:02.722,0.7356471,0.27740842,-0.010950451,,2023-04-29 12:18:00.987,-1.6390835,1.0863415,9.363115,2023-04-29 12:18:03.069,-0.7021389,-0.12699556,0.9365923
,,2023-04-29 12:18:02.682,10.083033,2.8836036,0.79993653,2023-04-29 12:18:02.756,0.61101115,0.29445264,0.020474851,,2023-04-29 12:18:01.029,-1.6127625,1.0695918,9.389436,2023-04-29 12:18:03.102,-0.94391894,-0.30039334,0.79128003
,,2023-04-29 12:18:02.701,9.996812,3.0991554,0.52690434,2023-04-29 12:18:02.773,0.5438995,0.320019,0.0295296,,2023-04-29 12:18:01.03,-1.5840486,1.0600204,9.389436,2023-04-29 12:18:03.109,-1.0709145,-0.37488112,0.68504333
,,2023-04-29 12:18:02.722,10.035132,3.1183155,0.57959473,2023-04-29 12:18:02.791,0.5284532,0.3695538,0.034855917,,2023-04-29 12:18:01.032,-1.6247265,1.0313065,9.403793,2023-04-29 12:18:03.113,-1.0379444,-0.6874856,0.5922389
,,2023-04-29 12:18:02.756,10.442286,3.0129347,0.8047266,2023-04-29 12:18:02.807,0.5625416,0.39991382,0.05509595,,2023-04-29 12:18:01.032,-1.6271194,1.0432707,9.410972,2023-04-29 12:18:03.145,-1.229659,-0.5128667,0.56293225
,,2023-04-29 12:18:02.772,10.552457,3.1135256,0.7424561,2023-04-29 12:18:02.827,0.57958585,0.41695806,0.0609549,,2023-04-29 12:18:01.074,-1.6342978,1.0456635,9.444471,2023-04-29 12:18:03.188,-1.3676445,-0.80593336,0.52019334
,,2023-04-29 12:18:02.791,10.193204,3.4296682,0.9148975,2023-04-29 12:18:02.861,0.5646722,0.41269702,0.03911698,,2023-04-29 12:18:01.075,-1.6510476,1.0719845,9.45165,2023-04-29 12:18:03.189,-1.526389,-0.5128667,0.54095227
,,2023-04-29 12:18:02.806,9.920172,3.5973196,1.0681788,2023-04-29 12:18:02.873,0.57958585,0.38073906,0.019409586,,2023-04-29 12:18:01.077,-1.6630118,1.0600204,9.437292,2023-04-29 12:18:03.197,-1.4457957,-0.058613338,0.5507211
,,2023-04-29 12:18:02.826,9.85311,3.6883302,1.0154883,2023-04-29 12:18:02.888,0.634447,0.32694322,0.01781169,,2023-04-29 12:18:01.077,-1.6749759,1.079163,9.420543,2023-04-29 12:18:03.281,-1.17593,-0.07570889,0.5030978
,,2023-04-29 12:18:02.86,9.565708,3.8511915,1.0059083,2023-04-29 12:18:02.909,0.62911886,0.32055134,0.028462594,,2023-04-29 12:18:01.12,-1.7108682,1.1318051,9.372686,2023-04-29 12:18:03.282,-0.93903446,-0.52141446,0.40296668
,,2023-04-29 12:18:02.872,9.259146,4.033213,1.2166699,2023-04-29 12:18:02.943,0.4991566,0.33280188,0.03006049,,2023-04-29 12:18:01.121,-1.7347964,1.174876,9.322437,2023-04-29 12:18:03.323,-0.8621045,-0.63986224,0.32115224
,,2023-04-29 12:18:02.887,9.048384,4.1050634,1.4609619,2023-04-29 12:18:02.963,0.34895432,0.32907346,0.009287833,,2023-04-29 12:18:01.122,-1.7826529,1.1700903,9.2793665,2023-04-29 12:18:03.331,-0.9060645,-0.61544,0.28940335
,,2023-04-29 12:18:02.909,8.904683,3.9901028,1.3986914,2023-04-29 12:18:02.977,0.26852685,0.3083008,-0.021072203,,2023-04-29 12:18:01.123,-1.7635103,1.1222339,9.32483,2023-04-29 12:18:03.341,-1.0672512,-0.53118336,0.3052778
,,2023-04-29 12:18:02.942,8.775352,3.8464015,1.2837305,2023-04-29 12:18:02.993,0.20727414,0.315225,-0.04397539,,2023-04-29 12:18:01.164,-1.7419748,1.0648061,9.353543,2023-04-29 12:18:03.376,-1.3603178,0.18683001,0.3492378
,,2023-04-29 12:18:02.961,8.871153,3.6931202,1.5663428,2023-04-29 12:18:03.006,0.12098772,0.31788817,-0.063150145,,2023-04-29 12:18:01.164,-1.7156538,1.0001999,9.430114,2023-04-29 12:18:03.418,-1.2723979,0.23201112,0.39930335
,,2023-04-29 12:18:02.977,9.091495,3.5494192,1.7483643,2023-04-29 12:18:03.038,0.058669746,0.33599767,-0.049834345,,2023-04-29 12:18:01.169,-1.7084754,1.0097711,9.466006,2023-04-29 12:18:03.419,-1.075799,0.04029667,0.41029334
,,2023-04-29 12:18:02.992,9.426797,3.4967287,1.8872755,2023-04-29 12:18:03.056,0.036299195,0.3317366,-0.0146806175,,2023-04-29 12:18:01.171,-1.7347964,1.0624132,9.439685,2023-04-29 12:18:03.459,-0.92193896,0.23567446,0.30405667
,,2023-04-29 12:18:03.005,9.589659,3.558999,1.9591261,2023-04-29 12:18:03.076,-0.012170339,0.28113654,0.019940479,,2023-04-29 12:18:01.208,-1.7371893,1.146162,9.401401,2023-04-29 12:18:03.469,-0.31016225,-0.41273558,0.24300112
,,2023-04-29 12:18:03.037,9.469908,3.63564,2.1267774,2023-04-29 12:18:03.096,-0.10325045,0.2390586,0.04231103,,2023-04-29 12:18:01.21,-1.7706888,1.174876,9.399008,2023-04-29 12:18:03.47,-0.09402556,0.03174889,0.19415668
,,2023-04-29 12:18:03.055,9.393267,3.5254688,2.4333398,2023-04-29 12:18:03.117,-0.121359944,0.21402489,0.043376293,,2023-04-29 12:18:01.214,-1.727618,1.1365907,9.408579,2023-04-29 12:18:03.477,0.07204556,0.10745778,0.26986557
,,2023-04-29 12:18:03.074,9.417217,3.2332766,2.4668703,2023-04-29 12:18:03.148,-0.0020503271,0.1927196,0.028462594,,2023-04-29 12:18:01.214,-1.698904,1.1078769,9.430114,2023-04-29 12:18:03.481,0.23567446,-0.10379445,0.36999667
,,2023-04-29 12:18:03.096,9.580078,2.912344,2.5291407,2023-04-29 12:18:03.149,0.1817078,0.13732584,0.025266802,,2023-04-29 12:18:01.254,-1.7060826,1.1270195,9.439685,2023-04-29 12:18:03.486,0.058613338,0.36267,0.3858711
,,2023-04-29 12:18:03.117,9.6615095,2.663262,2.7111623,2023-04-29 12:18:03.176,0.34309536,0.07287735,0.034321547,,2023-04-29 12:18:01.254,-1.7324036,1.1365907,9.420543,2023-04-29 12:18:03.491,-0.23079,0.7082445,0.4371578
,,2023-04-29 12:18:03.148,9.546548,2.6297317,2.7494826,2023-04-29 12:18:03.187,0.40275016,0.053702585,0.057757366,,2023-04-29 12:18:01.259,-1.7228323,1.1006985,9.413364,2023-04-29 12:18:03.494,-0.106236674,0.029306669,0.48600224
,,2023-04-29 12:18:03.149,9.3453665,2.7734327,2.7159522,2023-04-29 12:18:03.224,0.36599854,0.057963643,0.0897153,,2023-04-29 12:18:01.261,-1.698904,1.1102697,9.401401,2023-04-29 12:18:03.495,-0.3809867,-0.21491556,0.52752
,,2023-04-29 12:18:03.172,9.273516,2.9698243,2.5530908,2023-04-29 12:18:03.244,0.34895432,0.014287802,0.10143321,,2023-04-29 12:18:01.301,-1.6366907,1.0983056,9.403793,2023-04-29 12:18:03.497,-0.4823389,-0.20148334,0.56293225
,,2023-04-29 12:18:03.186,9.168135,2.931504,2.299219,2023-04-29 12:18:03.255,0.40381542,-0.044834375,0.11315112,,2023-04-29 12:18:01.304,-1.5672989,1.052842,9.415757,2023-04-29 12:18:03.512,-0.5519422,-0.26376,0.63131446
,,2023-04-29 12:18:03.222,9.182506,2.6441016,2.299219,2023-04-29 12:18:03.279,0.45015442,-0.12313131,0.13978273,,2023-04-29 12:18:01.305,-1.5720844,0.98584294,9.41815,2023-04-29 12:18:03.512,-0.63742,-0.46035892,0.7009178
,,2023-04-29 12:18:03.243,9.206455,2.44771,2.4716604,2023-04-29 12:18:03.313,0.40381542,-0.27812728,0.1573596,,2023-04-29 12:18:01.305,-1.5553347,0.93320084,9.427721,2023-04-29 12:18:03.515,-0.5153089,-0.14897557,0.66306335
,,2023-04-29 12:18:03.254,9.230406,2.42376,2.4572902,2023-04-29 12:18:03.314,0.36599854,-0.3473695,0.12593429,,2023-04-29 12:18:01.343,-1.5601203,0.9523434,9.410972,2023-04-29 12:18:03.521,-0.23323223,0.028085556,0.5971234
,,2023-04-29 12:18:03.274,8.904683,2.4620802,2.2752686,2023-04-29 12:18:03.339,0.30314794,-0.12472921,0.17973015,,2023-04-29 12:18:01.345,-1.5840486,0.9954142,9.355937,2023-04-29 12:18:03.522,-0.16973445,0.21247335,0.6252089
,,2023-04-29 12:18:03.312,9.220825,2.3902297,2.5099807,2023-04-29 12:18:03.356,0.1737183,0.15863113,0.27240816,,2023-04-29 12:18:01.346,-1.579263,1.0025927,9.3200445,2023-04-29 12:18:03.548,-0.14287001,0.19049335,0.5262989
,,2023-04-29 12:18:03.313,9.6758795,2.3998096,2.572251,2023-04-29 12:18:03.376,0.13962984,0.20390487,0.3091598,,2023-04-29 12:18:01.347,-1.5864414,1.0073783,9.346365,2023-04-29 12:18:03.553,-0.02198,0.019537779,0.5030978
,,2023-04-29 12:18:03.339,9.72857,2.1603076,2.3614893,2023-04-29 12:18:03.408,0.23284048,0.13413005,0.3293998,,2023-04-29 12:18:01.396,-1.6007984,1.0169497,9.327223,2023-04-29 12:18:03.593,0.007326667,0.051286668,0.43960002
,,2023-04-29 12:18:03.354,9.671089,1.590293,2.7494826,2023-04-29 12:18:03.419,0.43417546,0.09950896,0.41941464,,2023-04-29 12:18:01.396,-1.5960127,1.0695918,9.32483,2023-04-29 12:18:03.596,0.0048844446,0.11234222,0.43960002
,,2023-04-29 12:18:03.375,9.70941,1.1064991,3.032095,2023-04-29 12:18:03.442,0.6813168,0.087791055,0.5408548,,2023-04-29 12:18:01.396,-1.5936198,1.0719845,9.32483,2023-04-29 12:18:03.612,0.08425667,0.21491556,0.41151446
,,2023-04-29 12:18:03.407,9.3453665,0.9436377,3.0177248,2023-04-29 12:18:03.455,1.1020963,0.00043936516,0.45776418,,2023-04-29 12:18:01.397,-1.5888343,1.0097711,9.348758,2023-04-29 12:18:03.612,0.11600556,0.47379112,0.34435335
,,2023-04-29 12:18:03.419,8.957374,0.8095166,3.166216,2023-04-29 12:18:03.476,1.6022379,-0.11780499,0.092911094,,2023-04-29 12:18:01.437,-1.6151553,0.9499506,9.377472,2023-04-29 12:18:03.645,0.18194556,0.19904111,0.26986557
,,2023-04-29 12:18:03.441,9.814791,1.3603711,3.5877395,2023-04-29 12:18:03.504,1.5809326,0.100574225,0.12540166,,2023-04-29 12:18:01.44,-1.6319051,0.89491564,9.391829,2023-04-29 12:18:03.652,0.22712667,-0.36511225,0.24544334
,,2023-04-29 12:18:03.455,15.179634,2.7494826,3.2141163,2023-04-29 12:18:03.53,1.12713,0.18046905,0.27720186,,2023-04-29 12:18:01.441,-1.6486548,0.9236295,9.372686,2023-04-29 12:18:03.655,0.16240779,0.05250778,0.2503278
,,2023-04-29 12:18:03.475,14.025235,3.9469924,-0.7807764,2023-04-29 12:18:03.538,0.4629376,-0.032051202,0.29903978,,2023-04-29 12:18:01.441,-1.672583,0.9762716,9.370294,2023-04-29 12:18:03.655,-0.09036223,0.48356003,0.42250445
,,2023-04-29 12:18:03.503,9.79563,5.1684523,-0.76161623,2023-04-29 12:18:03.555,-0.21936427,-0.080520734,0.26601657,,2023-04-29 12:18:01.48,-1.6845472,1.0671989,9.348758,2023-04-29 12:18:03.689,-0.11478445,0.34435335,0.5250778
,,2023-04-29 12:18:03.529,8.851993,4.991221,2.5770411,2023-04-29 12:18:03.573,-0.20178741,-0.14283872,0.14244589,,2023-04-29 12:18:01.483,-1.6941184,1.0863415,9.382257,2023-04-29 12:18:03.732,-0.04029667,-0.32359445,0.50554
,,2023-04-29 12:18:03.537,9.263936,3.558999,1.1639795,2023-04-29 12:18:03.596,0.34788904,-0.19450404,0.08332372,,2023-04-29 12:18:01.484,-1.6821543,1.079163,9.399008,2023-04-29 12:18:03.733,-0.1306589,-0.64963114,0.35412225
,,2023-04-29 12:18:03.555,10.015972,2.42855,0.41194338,2023-04-29 12:18:03.627,0.79370224,-0.25895253,0.18612173,,2023-04-29 12:18:01.484,-1.6510476,1.0336994,9.442079,2023-04-29 12:18:03.778,-0.19537778,-0.44448447,0.22468445
,,2023-04-29 12:18:03.572,10.102193,2.6488917,1.0873389,2023-04-29 12:18:03.649,0.81873596,-0.23977777,0.4764063,,2023-04-29 12:18:01.527,-1.6175481,0.98584294,9.458828,2023-04-29 12:18:03.782,-0.37732336,-0.18805112,0.15019667
,,2023-04-29 12:18:03.595,9.441168,3.4967287,1.0633887,2023-04-29 12:18:03.676,0.61580306,-0.051225964,0.6255433,,2023-04-29 12:18:01.527,-1.6295122,0.9451649,9.432507,2023-04-29 12:18:03.818,-0.58613336,-0.123332225,0.11356334
,,2023-04-29 12:18:03.625,8.641231,4.033213,0.7185059,2023-04-29 12:18:03.676,0.43044704,0.12773846,0.5472464,,2023-04-29 12:18:01.527,-1.6630118,0.97866446,9.403793,2023-04-29 12:18:03.822,-0.81326,-0.08425667,0.11844778
,,2023-04-29 12:18:03.649,8.919053,4.133804,-0.11496094,2023-04-29 12:18:03.704,0.43843654,0.11229213,0.3411177,,2023-04-29 12:18:01.528,-1.6630118,1.0552348,9.372686,2023-04-29 12:18:03.826,-0.6691689,-0.03174889,0.11600556
,,2023-04-29 12:18:03.675,9.4507475,3.6500099,-0.488584,2023-04-29 12:18:03.721,0.52951664,-0.07412914,0.064148955,,2023-04-29 12:18:01.569,-1.6917256,1.0959128,9.387043,2023-04-29 12:18:03.829,-0.4591378,0.029306669,0.13676445
,,2023-04-29 12:18:03.676,9.78605,3.1853762,0.09101075,2023-04-29 12:18:03.743,0.37931436,-0.4352538,-0.14144708,,2023-04-29 12:18:01.571,-1.6534405,1.0695918,9.389436,2023-04-29 12:18:03.83,-0.3602278,0.02075889,0.18927222
,,2023-04-29 12:18:03.704,10.140513,3.051255,0.6993457,2023-04-29 12:18:03.759,0.053343426,-0.5977066,-0.18352503,,2023-04-29 12:18:01.576,-1.6773686,0.9954142,9.427721,2023-04-29 12:18:03.831,-0.25765446,-0.012211111,0.21491556
,,2023-04-29 12:18:03.721,9.972861,3.0656252,0.244292,2023-04-29 12:18:03.778,-0.06916199,-0.3889148,-0.20642821,,2023-04-29 12:18:01.577,-1.6797615,0.93559366,9.430114,2023-04-29 12:18:03.832,-0.20636779,-0.036633335,0.22590557
,,2023-04-29 12:18:03.742,9.393267,3.051255,-1.1448194,2023-04-29 12:18:03.805,0.07358345,-0.033116467,-0.18991661,,2023-04-29 12:18:01.616,-1.6414764,0.9092726,9.442079,2023-04-29 12:18:03.832,-0.30283555,-0.10379445,0.23445335
,,2023-04-29 12:18:03.758,9.896221,3.027305,-1.0538087,2023-04-29 12:18:03.824,0.23177522,0.047311,-0.14890394,,2023-04-29 12:18:01.618,-1.5888343,0.92602235,9.468399,2023-04-29 12:18:03.833,-0.4701278,-0.1856089,0.21247335
,,2023-04-29 12:18:03.777,10.451866,2.816543,-0.05269043,2023-04-29 12:18:03.839,0.21792679,-0.016072234,-0.14144708,,2023-04-29 12:18:01.619,-1.6079768,0.97866446,9.468399,2023-04-29 12:18:03.84,-0.66306335,-0.23567446,0.17584
,,2023-04-29 12:18:03.805,10.365645,2.7351124,0.23950197,2023-04-29 12:18:03.861,0.07145292,-0.072531246,-0.15742604,,2023-04-29 12:18:01.619,-1.6582261,1.0073783,9.489935,2023-04-29 12:18:03.841,-0.8034911,-0.26376,0.18683001
,,2023-04-29 12:18:03.822,9.982442,2.7255323,0.12933107,2023-04-29 12:18:03.885,-0.028149307,-0.097564965,-0.16701344,,2023-04-29 12:18:01.659,-1.6558332,1.012164,9.485149,2023-04-29 12:18:03.863,-0.8120389,-0.26498112,0.18927222
,,2023-04-29 12:18:03.838,9.8866415,2.5243506,0.22992188,2023-04-29 12:18:03.907,0.024048652,-0.0783902,-0.15636079,,2023-04-29 12:18:01.659,-1.6821543,1.0097711,9.456435,2023-04-29 12:18:03.865,-0.7851745,-0.27230778,0.18683001
,,2023-04-29 12:18:03.861,9.829161,2.2177882,0.14849122,2023-04-29 12:18:03.926,0.21420257,-0.062410578,-0.12652928,,2023-04-29 12:18:01.662,-1.698904,1.026521,9.4636135,2023-04-29 12:18:03.912,-0.6789378,-0.24910668,0.15752333
,,2023-04-29 12:18:03.884,9.74773,1.9878663,0.119750984,2023-04-29 12:18:03.938,0.41447228,-0.060280047,-0.10043029,,2023-04-29 12:18:01.663,-1.7467605,0.9954142,9.446864,2023-04-29 12:18:03.912,-0.5678167,-0.22224224,0.14287001
,,2023-04-29 12:18:03.906,9.81,1.9160157,0.45026368,2023-04-29 12:18:03.96,0.46720287,-0.050160035,-0.09350607,,2023-04-29 12:18:01.664,-1.7850457,0.9284152,9.454042,2023-04-29 12:18:03.961,-0.5226356,-0.21247335,0.09280445
,,2023-04-29 12:18:03.926,9.81958,1.949546,0.5604346,2023-04-29 12:18:03.995,0.37825328,-0.026191587,-0.07859237,,2023-04-29 12:18:01.664,-1.8161523,0.8997013,9.468399,2023-04-29 12:18:03.962,-0.46646446,-0.2283478,0.08792
,,2023-04-29 12:18:03.937,9.75731,2.1363575,0.1341211,2023-04-29 12:18:04.002,0.27119422,-0.002223136,-0.05995024,,2023-04-29 12:18:01.705,-1.8017955,0.8805587,9.47797,2023-04-29 12:18:03.963,-0.44326335,-0.31382558,0.10135223
,,2023-04-29 12:18:03.959,9.79084,2.299219,-0.1820215,2023-04-29 12:18:04.02,0.22911628,-0.01287578,-0.051428124,,2023-04-29 12:18:01.706,-1.8831514,0.89013004,9.480363,2023-04-29 12:18:04.0,-0.5140878,-0.4151778,0.11600556
,,2023-04-29 12:18:03.993,9.74294,2.299219,-0.22992188,2023-04-29 12:18:04.039,0.228051,-0.04589898,-0.066341825,,2023-04-29 12:18:01.706,-1.9070797,0.95473623,9.473185,2023-04-29 12:18:04.002,-0.63742,-0.4689067,0.12211112
,,2023-04-29 12:18:04.001,9.599238,2.198628,0.06706055,2023-04-29 12:18:04.07,0.19556044,-0.010212619,-0.09244081,,2023-04-29 12:18:01.752,-1.9334008,1.0600204,9.437292,2023-04-29 12:18:04.043,-0.72411895,-0.48356003,0.102573335
,,2023-04-29 12:18:04.019,9.800421,1.9830762,0.47900394,2023-04-29 12:18:04.085,0.14655828,0.08246539,-0.10682188,,2023-04-29 12:18:01.793,-1.9980069,1.0743774,9.382257,2023-04-29 12:18:04.044,-0.6887067,-0.46646446,0.085477784
,,2023-04-29 12:18:04.038,10.207574,1.7627344,0.27303225,2023-04-29 12:18:04.125,0.13910143,0.17407814,-0.11853979,,2023-04-29 12:18:01.794,-1.9812572,1.0025927,9.377472,2023-04-29 12:18:04.093,-0.5690378,-0.40540892,0.102573335
,,2023-04-29 12:18:04.069,10.322535,1.705254,-0.12454102,2023-04-29 12:18:04.126,0.17798358,0.24438559,-0.1302577,,2023-04-29 12:18:01.797,-1.9597218,0.9092726,9.360723,2023-04-29 12:18:04.094,-0.53851,-0.28574002,0.10867889
,,2023-04-29 12:18:04.085,10.241104,1.7675245,0.100590825,2023-04-29 12:18:04.152,0.19342992,0.28220245,-0.108419776,,2023-04-29 12:18:01.798,-1.861616,0.83988076,9.401401,2023-04-29 12:18:04.134,-0.5800278,-0.16973445,0.11600556
,,2023-04-29 12:18:04.124,10.063872,1.8058448,0.47900394,2023-04-29 12:18:04.173,0.17052673,0.28166983,-0.08391869,,2023-04-29 12:18:01.798,-1.7563318,0.8327023,9.487542,2023-04-29 12:18:04.136,-0.5519422,-0.07693,0.089141116
,,2023-04-29 12:18:04.126,9.618399,1.839375,0.45984375,2023-04-29 12:18:04.192,0.10128454,0.2662235,-0.089245014,,2023-04-29 12:18:01.841,-1.6773686,0.849452,9.54497,2023-04-29 12:18:04.137,-0.4933289,0.01099,0.025643334
,,2023-04-29 12:18:04.151,9.158555,1.9303858,0.5748047,2023-04-29 12:18:04.207,-0.07927778,0.2731477,-0.06793972,,2023-04-29 12:18:01.842,-1.7060826,0.9284152,9.571291,2023-04-29 12:18:04.182,-0.40540892,0.07204556,-0.057392225
,,2023-04-29 12:18:04.171,9.335787,2.0980372,0.5556446,2023-04-29 12:18:04.222,-0.38607395,0.34185728,-0.043971278,,2023-04-29 12:18:01.842,-1.7443677,0.9906286,9.54497,2023-04-29 12:18:04.184,-0.38709223,0.13310112,-0.15630223
,,2023-04-29 12:18:04.192,9.441168,2.299219,0.038320314,2023-04-29 12:18:04.251,-0.66304266,0.3738152,-0.052493393,,2023-04-29 12:18:01.885,-1.7946169,1.0289137,9.473185,2023-04-29 12:18:04.224,-0.45425335,0.14042778,-0.23811668
,,2023-04-29 12:18:04.206,9.580078,2.2944288,-0.39278322,2023-04-29 12:18:04.268,-0.6918048,0.35623834,-0.1105503,,2023-04-29 12:18:01.887,-1.8257236,1.0959128,9.439685,2023-04-29 12:18:04.225,-0.46646446,0.07937223,-0.31504667
,,2023-04-29 12:18:04.221,9.704619,2.0549269,-0.38320315,2023-04-29 12:18:04.301,-0.4148361,0.44891635,-0.1600851,,2023-04-29 12:18:01.889,-1.8879371,1.0959128,9.4636135,2023-04-29 12:18:04.272,-0.39197668,0.046402223,-0.34801668
,,2023-04-29 12:18:04.25,10.054293,2.0980372,0.05269043,2023-04-29 12:18:04.317,-0.018025078,0.52241963,-0.091375545,,2023-04-29 12:18:01.89,-1.9525433,1.0839486,9.487542,2023-04-29 12:18:04.272,-0.3052778,0.07448778,-0.37366003
,,2023-04-29 12:18:04.267,10.729688,2.7111623,0.23471193,2023-04-29 12:18:04.339,0.20568046,0.26036453,-0.009882813,,2023-04-29 12:18:01.935,-2.0075781,1.0480564,9.5353985,2023-04-29 12:18:04.313,-0.25399113,0.19293556,-0.3504589
,,2023-04-29 12:18:04.3,9.996812,2.9602442,0.57959473,2023-04-29 12:18:04.35,0.106610864,-0.1721328,-0.07433131,,2023-04-29 12:18:01.935,-2.062613,1.0193424,9.568898,2023-04-29 12:18:04.361,0.045181114,0.35412225,-0.35900667
,,2023-04-29 12:18:04.317,8.861572,2.4908204,1.8202149,2023-04-29 12:18:04.385,0.20568046,-0.33298776,-0.1765967,,2023-04-29 12:18:01.94,-2.1128623,1.1174482,9.521041,2023-04-29 12:18:04.361,0.29795113,0.47379112,-0.31260446
,,2023-04-29 12:18:04.334,9.685459,1.9687061,0.98195803,2023-04-29 12:18:04.387,0.7239316,-0.21208023,-0.18511881,,2023-04-29 12:18:01.94,-2.1343977,1.2299109,9.485149,2023-04-29 12:18:04.368,0.26620224,0.38709223,-0.24788557
,,2023-04-29 12:18:04.35,11.452984,3.046465,0.2921924,2023-04-29 12:18:04.409,1.2091595,-0.015006309,-0.13984507,,2023-04-29 12:18:01.941,-2.1272194,1.2993027,9.394221,2023-04-29 12:18:04.372,0.081814446,0.23567446,-0.23567446
,,2023-04-29 12:18:04.384,12.25771,4.9624805,0.91010743,2023-04-29 12:18:04.425,1.2006375,0.09524856,-0.07273342,,2023-04-29 12:18:01.976,-2.1798615,1.3495519,9.312865,2023-04-29 12:18:04.404,0.057392225,0.19171445,-0.15508112
,,2023-04-29 12:18:04.387,11.03625,5.958809,0.5221143,2023-04-29 12:18:04.445,0.6818537,-0.09969483,-0.12280084,,2023-04-29 12:18:01.978,-2.213361,1.3782659,9.276974,2023-04-29 12:18:04.412,0.15752333,0.24910668,-0.029306669
,,2023-04-29 12:18:04.408,8.919053,6.11688,-0.26345217,2023-04-29 12:18:04.484,0.0922298,-0.40009943,-0.4242707,,2023-04-29 12:18:01.983,-2.2372892,1.3878372,9.255438,2023-04-29 12:18:04.454,0.07693,0.3260367,0.06716111
,,2023-04-29 12:18:04.424,7.7359133,5.9061184,-0.09580079,2023-04-29 12:18:04.501,-0.19219582,-0.52473533,-0.71349,,2023-04-29 12:18:01.985,-2.213361,1.39023,9.265009,2023-04-29 12:18:04.454,-0.51164556,0.36511225,0.10867889
,,2023-04-29 12:18:04.444,8.617281,5.1828227,0.6179151,2023-04-29 12:18:04.518,-0.13999785,-0.47999427,-0.8690186,,2023-04-29 12:18:01.985,-2.239682,1.3567305,9.226724,2023-04-29 12:18:04.493,-1.2675134,0.36633334,0.109900005
,,2023-04-29 12:18:04.484,9.249566,4.358936,1.2070899,2023-04-29 12:18:04.534,-0.033471417,-0.313813,-0.8642249,,2023-04-29 12:18:01.985,-2.2827528,1.2323036,9.209974,2023-04-29 12:18:04.496,-1.3908457,0.4383789,0.11600556
,,2023-04-29 12:18:04.5,9.498648,4.157754,1.4418018,2023-04-29 12:18:04.56,0.08424031,-0.29463825,-0.78166693,,2023-04-29 12:18:01.986,-2.2827528,1.160519,9.23151,2023-04-29 12:18:04.539,-1.1429601,0.50676113,0.21003112
,,2023-04-29 12:18:04.517,9.455538,4.636758,0.47900394,2023-04-29 12:18:04.569,0.16733094,-0.3319225,-0.6841952,,2023-04-29 12:18:01.987,-2.2325034,1.1102697,9.272188,2023-04-29 12:18:04.541,-0.64108336,0.5922389,0.27230778
,,2023-04-29 12:18:04.533,9.010064,5.3408937,0.6466553,2023-04-29 12:18:04.588,0.15081935,-0.36228254,-0.6160183,,2023-04-29 12:18:01.988,-2.2205393,1.0959128,9.209974,2023-04-29 12:18:04.589,-0.21369445,0.63986224,0.32237336
,,2023-04-29 12:18:04.556,8.49753,5.8965383,0.96758795,2023-04-29 12:18:04.618,0.049619213,-0.4160784,-0.56914663,,2023-04-29 12:18:01.99,-2.2277179,1.0743774,9.140582,2023-04-29 12:18:04.589,-0.04151778,0.5739222,0.3174889
,,2023-04-29 12:18:04.568,8.171807,6.09293,1.1208692,2023-04-29 12:18:04.636,-0.028677722,-0.4299268,-0.53825396,,2023-04-29 12:18:02.018,-2.2420747,1.1389836,9.073584,2023-04-29 12:18:04.592,-0.047623336,0.48600224,0.32970002
,,2023-04-29 12:18:04.587,7.8508744,5.7001467,0.82388675,2023-04-29 12:18:04.654,-0.08087568,-0.41874155,-0.52440554,,2023-04-29 12:18:02.019,-2.213361,1.1557333,9.001799,2023-04-29 12:18:04.635,-0.24178001,0.39930335,0.36633334
,,2023-04-29 12:18:04.617,7.8652444,5.1971927,0.78556645,2023-04-29 12:18:04.668,-0.04678722,-0.3564236,-0.54304767,,2023-04-29 12:18:02.02,-2.2420747,1.1940185,8.949157,2023-04-29 12:18:04.636,-0.6777167,0.34313223,0.4041878
,,2023-04-29 12:18:04.633,7.917935,5.0199614,0.68976563,2023-04-29 12:18:04.699,0.10980666,-0.37186992,-0.6027025,,2023-04-29 12:18:02.021,-2.2779672,1.2227324,8.961121,2023-04-29 12:18:04.675,-1.1405178,0.23079,0.40174556
,,2023-04-29 12:18:04.653,7.975415,5.0774417,0.8861573,2023-04-29 12:18:04.718,0.25308472,-0.45283002,-0.62880147,,2023-04-29 12:18:02.021,-2.225325,1.2562319,8.939586,2023-04-29 12:18:04.677,-1.3749712,0.20026223,0.36389112
,,2023-04-29 12:18:04.667,7.9849954,5.110972,1.575923,2023-04-29 12:18:04.734,0.32658795,-0.38092467,-0.6096267,,2023-04-29 12:18:02.075,-2.1678972,1.3304094,8.970692,2023-04-29 12:18:04.718,-1.2809457,0.27108666,0.33580557
,,2023-04-29 12:18:04.698,7.8508744,5.005591,1.6669337,2023-04-29 12:18:04.751,0.3516217,-0.28771403,-0.57660353,,2023-04-29 12:18:02.076,-2.1224337,1.3495519,9.0233345,2023-04-29 12:18:04.764,-1.1502867,0.28940335,0.3370267
,,2023-04-29 12:18:04.718,7.7071733,4.7133985,1.3555812,2023-04-29 12:18:04.775,0.29463002,-0.37719622,-0.46475074,,2023-04-29 12:18:02.076,-2.1655045,1.253839,9.128618,2023-04-29 12:18:04.766,-1.174709,0.2503278,0.34435335
,,2023-04-29 12:18:04.733,7.932305,4.368516,1.22625,2023-04-29 12:18:04.79,0.28557527,-0.5865207,-0.40882435,,2023-04-29 12:18:02.108,-2.2444677,1.1030912,9.183653,2023-04-29 12:18:04.766,-1.45068,0.21613668,0.36633334
,,2023-04-29 12:18:04.75,6.9168167,3.6212697,1.6142433,2023-04-29 12:18:04.812,0.51087874,-0.57959646,-0.5398519,,2023-04-29 12:18:02.115,-2.3258235,1.012164,9.260223,2023-04-29 12:18:04.808,-1.9794211,0.10135223,0.39930335
,,2023-04-29 12:18:04.774,5.9300685,2.7494826,2.7638526,2023-04-29 12:18:04.84,1.0238035,-0.22220024,-0.75450265,,2023-04-29 12:18:02.116,-2.37368,1.0097711,9.29133,2023-04-29 12:18:04.813,-2.2676034,-0.015874445,0.37488112
,,2023-04-29 12:18:04.789,6.6342044,2.6201515,2.2608986,2023-04-29 12:18:04.856,1.2182143,0.09791172,-0.76568794,,2023-04-29 12:18:02.117,-2.3856442,1.1557333,9.298509,2023-04-29 12:18:04.814,-1.8438779,-0.06594,0.30772
,,2023-04-29 12:18:04.811,9.163345,4.1050634,-0.23950197,2023-04-29 12:18:04.874,0.86454654,0.110162266,-0.69165206,,2023-04-29 12:18:02.156,-2.4239295,1.3160524,9.30808,2023-04-29 12:18:04.854,-1.3676445,-0.081814446,0.23567446
,,2023-04-29 12:18:04.839,10.097403,5.230723,-1.8154249,2023-04-29 12:18:04.897,0.6541568,-0.12685907,-0.59418035,,2023-04-29 12:18:02.157,-2.3976083,1.4237294,9.327223,2023-04-29 12:18:04.899,-1.3676445,-0.21369445,0.11600556
,,2023-04-29 12:18:04.855,9.704619,6.485713,-2.2177882,2023-04-29 12:18:04.916,0.7468348,-0.2541582,-0.53399295,,2023-04-29 12:18:02.157,-2.2827528,1.4237294,9.38465,2023-04-29 12:18:04.899,-1.4689968,-0.31382558,0.123332225
,,2023-04-29 12:18:04.873,8.205338,6.959927,-0.43110353,2023-04-29 12:18:04.934,0.6637442,-0.18704651,-0.56967926,,2023-04-29 12:18:02.164,-2.1631117,1.3543376,9.45165,2023-04-29 12:18:04.901,-1.06603,-0.25399113,0.15141778
,,2023-04-29 12:18:04.894,7.0078273,6.5144534,-0.74724615,2023-04-29 12:18:04.965,0.2988911,0.12134754,-0.59204984,,2023-04-29 12:18:02.165,-2.0721843,1.2251252,9.487542,2023-04-29 12:18:04.943,-0.2955089,-0.15019667,0.1746189
,,2023-04-29 12:18:04.915,8.349038,5.997129,-1.8010547,2023-04-29 12:18:04.987,0.121524565,0.24864665,-0.5057634,,2023-04-29 12:18:02.201,-1.9908284,1.038485,9.499506,2023-04-29 12:18:04.944,0.15874445,-0.11600556,0.27230778
,,2023-04-29 12:18:04.933,9.153765,6.0210795,-2.8548634,2023-04-29 12:18:04.999,0.403287,0.1288044,-0.39870435,,2023-04-29 12:18:02.201,-1.9286151,0.9236295,9.4636135,2023-04-29 12:18:04.945,0.070824444,-0.15996556,0.4383789
,,2023-04-29 12:18:04.964,9.292676,5.910908,-2.5147705,2023-04-29 12:18:05.021,0.7649443,0.082998015,-0.37313798,,2023-04-29 12:18:02.202,-1.9477576,0.8709874,9.394221,2023-04-29 12:18:04.99,-0.3809867,-0.21003112,0.5788067
,,2023-04-29 12:18:04.981,9.091495,5.853428,-1.0633887,2023-04-29 12:18:05.034,0.7553569,0.19751395,-0.3150811,,2023-04-29 12:18:02.245,-1.9573289,0.9284152,9.329616,2023-04-29 12:18:04.997,-0.6752745,-0.26376,0.6386411
,,2023-04-29 12:18:04.998,9.177715,6.246211,-0.78556645,2023-04-29 12:18:05.073,0.49117133,0.110162266,-0.2623505,,2023-04-29 12:18:02.246,-1.9764715,1.0073783,9.284152,2023-04-29 12:18:05.004,-0.7998278,-0.26742333,0.7265611
,,2023-04-29 12:18:05.02,8.56938,6.6773148,-2.203418,2023-04-29 12:18:05.087,0.27385736,0.04198534,-0.16594405,,2023-04-29 12:18:02.248,-1.9716859,1.0576276,9.288938,2023-04-29 12:18:05.035,-1.0074167,-0.26498112,0.8437878
,,2023-04-29 12:18:05.033,7.8029737,6.5144534,-2.5339308,2023-04-29 12:18:05.101,0.2861079,0.17780656,-0.09190817,,2023-04-29 12:18:02.25,-1.9932213,1.0049855,9.293723,2023-04-29 12:18:05.037,-0.9878789,-0.21491556,0.8621045
,,2023-04-29 12:18:05.072,7.7550735,5.829478,-2.0118165,2023-04-29 12:18:05.123,0.5034219,0.22680873,-0.14304087,,2023-04-29 12:18:02.288,-1.969293,0.9020941,9.274581,2023-04-29 12:18:05.08,-0.69603336,-0.15630223,0.85722005
,,2023-04-29 12:18:05.086,8.689131,5.369634,-1.8106349,2023-04-29 12:18:05.154,0.6381779,0.14797916,-0.12067032,,2023-04-29 12:18:02.29,-1.9621146,0.8255238,9.243474,2023-04-29 12:18:05.085,-0.63131446,-0.13188,0.7851745
,,2023-04-29 12:18:05.099,9.604029,5.8677983,-1.6717237,2023-04-29 12:18:05.174,0.57000095,-0.28505087,0.105698384,,2023-04-29 12:18:02.29,-1.9788643,0.7585248,9.212367,2023-04-29 12:18:05.124,-0.92071784,-0.019537779,0.7546467
,,2023-04-29 12:18:05.122,8.746612,7.30481,-1.8345851,2023-04-29 12:18:05.184,0.46826813,-0.80436724,0.43220195,,2023-04-29 12:18:02.291,-1.969293,0.70588267,9.193225,2023-04-29 12:18:05.126,-1.3920667,-0.015874445,0.6557367
,,2023-04-29 12:18:05.153,7.7167535,8.071217,-1.9112257,2023-04-29 12:18:05.199,0.45015863,-0.968418,0.5009115,,2023-04-29 12:18:02.293,-1.9716859,0.64845496,9.183653,2023-04-29 12:18:05.171,-0.9329289,-0.02198,0.58491224
,,2023-04-29 12:18:05.173,7.103628,7.975415,-1.8729054,2023-04-29 12:18:05.237,0.54549986,-0.7926493,0.4252777,,2023-04-29 12:18:02.335,-1.9908284,0.58624154,9.195618,2023-04-29 12:18:05.172,-0.23567446,0.05006556,0.4933289
,,2023-04-29 12:18:05.183,7.8844047,6.1599903,-2.088457,2023-04-29 12:18:05.251,0.5822515,-0.6147502,0.2516396,,2023-04-29 12:18:02.338,-1.995614,0.55752766,9.221938,2023-04-29 12:18:05.18,-0.06716111,0.102573335,0.44692668
,,2023-04-29 12:18:05.199,8.59333,5.0918117,-2.43813,2023-04-29 12:18:05.265,0.45335442,-0.60835856,0.21861641,,2023-04-29 12:18:02.341,-1.98365,0.58624154,9.238688,2023-04-29 12:18:05.219,-0.40052447,0.09524667,0.4713489
,,2023-04-29 12:18:05.235,9.005274,5.4510646,-3.5254688,2023-04-29 12:18:05.289,0.33990377,-0.746843,0.4300714,,2023-04-29 12:18:02.385,-1.9932213,0.6843473,9.250652,2023-04-29 12:18:05.22,-0.7815111,0.025643334,0.55316335
,,2023-04-29 12:18:05.247,8.080796,6.2989016,-4.598438,2023-04-29 12:18:05.298,0.3090111,-0.87041366,0.5456526,,2023-04-29 12:18:02.388,-1.9980069,0.8111669,9.21476,2023-04-29 12:18:05.26,-0.64963114,0.019537779,0.5140878
,,2023-04-29 12:18:05.264,7.4676714,6.6821046,-3.2284865,2023-04-29 12:18:05.32,0.27066156,-0.988658,0.20583324,,2023-04-29 12:18:02.389,-1.9908284,0.8566305,9.176475,2023-04-29 12:18:05.262,-0.22590557,0.08059334,0.38831335
,,2023-04-29 12:18:05.288,7.726333,6.0019193,-1.9687061,2023-04-29 12:18:05.339,0.20887625,-1.1644267,0.08013204,,2023-04-29 12:18:02.423,-2.0027926,0.7968099,9.147761,2023-04-29 12:18:05.303,-0.089141116,0.12455334,0.31260446
,,2023-04-29 12:18:05.298,9.249566,4.4691067,-2.5195606,2023-04-29 12:18:05.365,0.21047415,-1.2448542,0.12540577,,2023-04-29 12:18:02.424,-1.9477576,0.6436693,9.162118,2023-04-29 12:18:05.305,-0.25887558,0.057392225,0.32115224
,,2023-04-29 12:18:05.32,9.278306,5.0918117,-3.4679885,2023-04-29 12:18:05.39,0.31060898,-1.0616287,0.004498257,,2023-04-29 12:18:02.425,-1.875973,0.46181476,9.202796,2023-04-29 12:18:05.352,-0.46158,-0.06105556,0.40540892
,,2023-04-29 12:18:05.338,8.243657,6.0737696,-3.415298,2023-04-29 12:18:05.421,0.33191428,-1.0041044,0.00769405,,2023-04-29 12:18:02.426,-1.7611175,0.33499518,9.29133,2023-04-29 12:18:05.353,-0.44204223,-0.10013112,0.44082114
,,2023-04-29 12:18:05.365,8.464,5.4175344,-3.9422023,2023-04-29 12:18:05.431,0.39955857,-1.1223488,0.13605842,,2023-04-29 12:18:02.426,-1.6701902,0.30388847,9.365508,2023-04-29 12:18:05.355,-0.24544334,-0.037854444,0.42006224
,,2023-04-29 12:18:05.389,7.793394,5.8438478,-3.923042,2023-04-29 12:18:05.455,0.45921648,-1.2704201,0.20903204,,2023-04-29 12:18:02.428,-1.6175481,0.30149564,9.432507,2023-04-29 12:18:05.394,-0.28940335,-0.0048844446,0.42250445
,,2023-04-29 12:18:05.418,7.0078273,5.6857767,-2.8213332,2023-04-29 12:18:05.469,0.3819848,-1.2746811,0.1275393,,2023-04-29 12:18:02.473,-1.6199409,0.31585258,9.449257,2023-04-29 12:18:05.396,-0.5653745,-0.042738892,0.48356003
,,2023-04-29 12:18:05.43,7.185059,4.9289503,-2.668052,2023-04-29 12:18:05.486,0.3734627,-1.2208853,0.13606143,,2023-04-29 12:18:02.474,-1.6462619,0.3397808,9.437292,2023-04-29 12:18:05.441,-0.68626446,-0.07326667,0.45425335
,,2023-04-29 12:18:05.454,8.133487,4.4643164,-4.5074267,2023-04-29 12:18:05.521,0.38731113,-1.2709527,0.2180868,,2023-04-29 12:18:02.514,-1.7012969,0.3684947,9.35833,2023-04-29 12:18:05.443,-0.31138334,-0.025643334,0.33336335
,,2023-04-29 12:18:05.468,7.2185893,5.101392,-4.8139896,2023-04-29 12:18:05.531,0.37079954,-1.2528431,0.28679636,,2023-04-29 12:18:02.516,-1.8089739,0.38524446,9.174082,2023-04-29 12:18:05.484,-0.1526389,0.0036633336,0.30161446
,,2023-04-29 12:18:05.483,7.2664895,5.738467,-4.4595265,2023-04-29 12:18:05.549,0.32446054,-1.1697526,0.26336053,,2023-04-29 12:18:02.518,-1.9764715,0.37806597,8.970692,2023-04-29 12:18:05.487,-0.29795113,-0.04029667,0.33214223
,,2023-04-29 12:18:05.52,6.912027,5.2929935,-4.8331494,2023-04-29 12:18:05.565,0.35482058,-1.0280724,0.19784677,,2023-04-29 12:18:02.518,-2.172683,0.33020952,8.705089,2023-04-29 12:18:05.533,-0.39686114,-0.11844778,0.3602278
,,2023-04-29 12:18:05.53,6.9551373,5.0678616,-5.479805,2023-04-29 12:18:05.603,0.38731113,-0.9849291,0.1999773,,2023-04-29 12:18:02.559,-2.4047868,0.19381863,8.329415,2023-04-29 12:18:05.535,-0.26009667,-0.16362889,0.34435335
,,2023-04-29 12:18:05.548,7.0174074,4.9385304,-5.757627,2023-04-29 12:18:05.614,0.35801637,-0.97321117,0.22128259,,2023-04-29 12:18:02.565,-2.6464617,0.011964113,7.9369926,2023-04-29 12:18:05.536,-0.14164889,-0.17706113,0.32237336
,,2023-04-29 12:18:05.564,7.1563187,4.7948294,-5.5612354,2023-04-29 12:18:05.63,0.3718648,-0.9423185,0.13765933,,2023-04-29 12:18:02.565,-2.9383862,-0.2105684,7.4656067,2023-04-29 12:18:05.575,-0.08425667,-0.16607112,0.3174889
,,2023-04-29 12:18:05.601,6.7970657,4.9385304,-5.8103175,2023-04-29 12:18:05.648,0.39103955,-1.0296702,0.101440325,,2023-04-29 12:18:02.567,-3.2422748,-0.40917268,6.8865438,2023-04-29 12:18:05.575,-0.045181114,-0.17095557,0.32359445
,,2023-04-29 12:18:05.613,7.1132083,4.5409575,-5.886958,2023-04-29 12:18:05.669,0.36494058,-0.96149325,0.051372897,,2023-04-29 12:18:02.609,-3.495914,-0.5838487,6.2883377,2023-04-29 12:18:05.619,0.06716111,-0.13188,0.28085557
,,2023-04-29 12:18:05.629,7.0174074,4.981641,-6.0833497,2023-04-29 12:18:05.687,0.30315524,-0.78572464,0.022078127,,2023-04-29 12:18:02.617,-3.6514473,-0.7513463,5.7427745,2023-04-29 12:18:05.625,0.23567446,-0.06227667,0.1746189
,,2023-04-29 12:18:05.647,6.935977,4.9002104,-7.0174074,2023-04-29 12:18:05.704,0.26214257,-0.68505716,0.036991827,,2023-04-29 12:18:02.624,-3.7423747,-0.8805587,5.3790655,2023-04-29 12:18:05.663,0.2613178,-0.039075557,0.106236674
,,2023-04-29 12:18:05.669,6.8114357,4.7804594,-7.36708,2023-04-29 12:18:05.735,0.2514899,-0.64883816,0.043383412,,2023-04-29 12:18:02.649,-3.8165522,-0.91166544,5.139783,2023-04-29 12:18:05.667,0.15752333,-0.081814446,0.11112112
,,2023-04-29 12:18:05.685,6.6773148,4.8571,-7.079678,2023-04-29 12:18:05.747,0.17745404,-0.4986359,0.05456869,,2023-04-29 12:18:02.65,-3.7854455,-0.86141616,5.0344987,2023-04-29 12:18:05.709,0.10867889,-0.12699556,0.12455334
,,2023-04-29 12:18:05.703,7.065308,4.7469287,-6.821016,2023-04-29 12:18:05.773,0.12312554,-0.3862505,0.096114,,2023-04-29 12:18:02.651,-3.7998023,-0.8853444,5.0009995,2023-04-29 12:18:05.71,0.07326667,-0.10867889,0.106236674
,,2023-04-29 12:18:05.733,6.6342044,4.7708793,-7.711963,2023-04-29 12:18:05.784,0.14070241,-0.39264208,0.08066767,,2023-04-29 12:18:02.651,-3.8069808,-0.94277215,5.0512486,2023-04-29 12:18:05.712,0.11112112,-0.06594,0.057392225
,,2023-04-29 12:18:05.747,6.1456203,4.996011,-7.846084,2023-04-29 12:18:05.807,0.09170024,-0.26374507,0.11102771,,2023-04-29 12:18:02.655,-3.7854455,-0.9882358,5.1732826,2023-04-29 12:18:05.756,0.23933779,-0.023201112,0.01099
,,2023-04-29 12:18:05.772,6.686895,4.87626,-7.3862405,2023-04-29 12:18:05.824,0.03950228,-0.19343762,0.13180037,,2023-04-29 12:18:02.702,-3.9074793,-1.2107682,5.4628143,2023-04-29 12:18:05.757,0.2613178,0,-0.04151778
,,2023-04-29 12:18:05.783,5.9875493,4.8379397,-7.8604546,2023-04-29 12:18:05.848,0.057079144,-0.3367157,0.1307351,,2023-04-29 12:18:02.702,-3.993621,-1.2035898,5.6446686,2023-04-29 12:18:05.802,0.23445335,-0.013432222,-0.09646778
,,2023-04-29 12:18:05.806,6.1695704,4.358936,-7.7407036,2023-04-29 12:18:05.866,0.027784372,-0.31700832,0.13765933,,2023-04-29 12:18:02.702,-4.0103707,-1.2729816,6.0394845,2023-04-29 12:18:05.805,0.15019667,-0.06594,-0.12089001
,,2023-04-29 12:18:05.823,6.471343,4.138594,-6.816226,2023-04-29 12:18:05.885,0.014468567,-0.25042927,0.13925722,,2023-04-29 12:18:02.738,-3.9984066,-1.4548361,6.3074803,2023-04-29 12:18:05.843,0.05006556,-0.106236674,-0.12211112
,,2023-04-29 12:18:05.847,6.3899126,4.368516,-7.8029737,2023-04-29 12:18:05.914,0.02938227,-0.18917656,0.17441095,,2023-04-29 12:18:02.739,-4.0271206,-1.6677973,6.5754766,2023-04-29 12:18:05.846,0.045181114,-0.07937223,-0.1306589
,,2023-04-29 12:18:05.865,6.600674,4.4355764,-7.8987746,2023-04-29 12:18:05.93,0.009142244,-0.19929658,0.1834657,,2023-04-29 12:18:02.741,-4.0869412,-1.9238294,6.8817577,2023-04-29 12:18:05.89,0.20148334,-0.019537779,-0.14042778
,,2023-04-29 12:18:05.884,5.9204884,4.646338,-7.6401124,2023-04-29 12:18:05.948,-0.057436783,-0.22060187,0.19944467,,2023-04-29 12:18:02.744,-4.141976,-2.3282163,7.2789664,2023-04-29 12:18:05.891,0.31138334,-0.012211111,-0.14775445
,,2023-04-29 12:18:05.913,6.361172,4.799619,-7.8365045,2023-04-29 12:18:05.968,-0.11336317,-0.23498294,0.20104256,,2023-04-29 12:18:02.744,-4.211368,-2.8307092,7.6546397,2023-04-29 12:18:05.892,0.28574002,-0.06105556,-0.11966889
,,2023-04-29 12:18:05.929,6.4186525,4.87626,-8.54064,2023-04-29 12:18:05.996,-0.18580115,-0.13591334,0.2361963,,2023-04-29 12:18:02.745,-4.342973,-3.3619158,7.9369926,2023-04-29 12:18:05.936,0.16851334,-0.117226675,-0.10379445
,,2023-04-29 12:18:05.948,6.5288234,5.1061816,-8.363408,2023-04-29 12:18:06.014,-0.26196754,-0.11354279,0.2164889,,2023-04-29 12:18:02.746,-4.462614,-3.8572302,8.149954,2023-04-29 12:18:05.937,0.13188,-0.11478445,-0.10867889
,,2023-04-29 12:18:05.966,5.910908,5.1397123,-8.58854,2023-04-29 12:18:06.029,-0.3615698,-0.04163744,0.1488446,,2023-04-29 12:18:02.747,-4.5415773,-4.28076,8.226524,2023-04-29 12:18:05.981,0.123332225,-0.07693,-0.15630223
,,2023-04-29 12:18:05.995,6.2605815,4.3493557,-8.425679,2023-04-29 12:18:06.049,-0.3967235,0.063823745,0.13233301,,2023-04-29 12:18:02.784,-4.575077,-4.45065,8.365308,2023-04-29 12:18:05.982,0.06716111,-0.02198,-0.2185789
,,2023-04-29 12:18:06.013,6.5096636,4.4355764,-8.943004,2023-04-29 12:18:06.069,-0.33973187,0.04891004,0.1850636,,2023-04-29 12:18:02.788,-4.6301117,-4.3908296,8.60459,2023-04-29 12:18:06.024,0.014653334,0.07937223,-0.27230778
,,2023-04-29 12:18:06.029,6.6533647,5.4127445,-8.947793,2023-04-29 12:18:06.098,-0.3354708,-0.0048858146,0.23672892,,2023-04-29 12:18:02.789,-4.6229334,-4.1754756,8.841479,2023-04-29 12:18:06.026,0.05250778,0.17950334,-0.2942878
,,2023-04-29 12:18:06.048,6.327642,5.527705,-7.8844047,2023-04-29 12:18:06.114,-0.36423293,-0.06933431,0.26762158,,2023-04-29 12:18:02.789,-4.584648,-3.9960139,9.037691,2023-04-29 12:18:06.073,0.10013112,0.21613668,-0.28940335
,,2023-04-29 12:18:06.068,6.1647806,5.1397123,-7.798184,2023-04-29 12:18:06.13,-0.3668961,-0.17852393,0.27028474,,2023-04-29 12:18:02.79,-4.4243293,-3.9888353,9.255438,2023-04-29 12:18:06.074,0.106236674,0.15630223,-0.29306668
,,2023-04-29 12:18:06.097,5.997129,4.84752,-7.673643,2023-04-29 12:18:06.15,-0.41057193,-0.15402284,0.25217524,,2023-04-29 12:18:02.791,-4.23051,-4.211368,9.430114,2023-04-29 12:18:06.077,0.17584,-0.039075557,-0.4701278
,,2023-04-29 12:18:06.113,6.0737696,4.5936475,-7.1323686,2023-04-29 12:18:06.179,-0.5005868,0.0052341977,0.22128259,,2023-04-29 12:18:02.791,-4.058227,-4.5559344,9.638289,2023-04-29 12:18:06.163,-0.117226675,-0.45425335,-0.8120389
,,2023-04-29 12:18:06.128,5.910908,4.358936,-7.486831,2023-04-29 12:18:06.196,-0.601787,0.2001776,0.2282068,,2023-04-29 12:18:02.832,-3.9433718,-4.8358946,9.769895,2023-04-29 12:18:06.164,-1.4128256,-0.8987378,-0.9817734
,,2023-04-29 12:18:06.149,6.05461,4.6511283,-7.941885,2023-04-29 12:18:06.219,-0.6667681,0.3418578,0.28519845,,2023-04-29 12:18:02.832,-3.9338005,-5.235496,9.997213,2023-04-29 12:18:06.166,-3.086969,-1.0733567,-1.1991311
,,2023-04-29 12:18:06.178,6.3228517,5.1636624,-7.9706254,2023-04-29 12:18:06.232,-0.7216292,0.39192522,0.34591854,,2023-04-29 12:18:02.833,-4.034299,-5.7427745,10.155139,2023-04-29 12:18:06.249,-3.91244,-0.8755367,-1.6680379
,,2023-04-29 12:18:06.195,5.848638,5.3313136,-6.9934573,2023-04-29 12:18:06.251,-0.7930019,0.36529356,0.3853333,,2023-04-29 12:18:02.882,-4.2448673,-5.9988065,10.073783,2023-04-29 12:18:06.25,-2.8476312,-0.41151446,-2.6058512
,,2023-04-29 12:18:06.218,5.4366946,5.039121,-6.2510014,2023-04-29 12:18:06.279,-0.843602,0.21083024,0.37255013,,2023-04-29 12:18:02.882,-4.4051867,-6.0418773,9.987641,2023-04-29 12:18:06.254,-0.07204556,0.20270446,-2.6376002
,,2023-04-29 12:18:06.231,5.264253,4.6607084,-6.2605815,2023-04-29 12:18:06.295,-0.8340146,0.0020384043,0.39705122,,2023-04-29 12:18:02.888,-4.6803613,-6.192625,9.899107,2023-04-29 12:18:06.258,1.2699556,0.9463611,-3.19809
,,2023-04-29 12:18:06.251,5.5947657,4.282295,-5.872588,2023-04-29 12:18:06.313,-0.8292209,-0.094368026,0.4316723,,2023-04-29 12:18:02.918,-4.898108,-6.262017,9.712467,2023-04-29 12:18:06.259,0.7949434,1.3041468,-3.767128
,,2023-04-29 12:18:06.278,5.398374,4.5696974,-5.269043,2023-04-29 12:18:06.332,-0.88940835,-0.0757259,0.44072706,,2023-04-29 12:18:02.919,-5.005785,-6.2404814,9.585648,2023-04-29 12:18:06.299,0.06716111,1.845099,-3.7646856
,,2023-04-29 12:18:06.294,5.5516553,4.9864306,-5.2738333,2023-04-29 12:18:06.361,-0.9416063,-0.027256368,0.48014185,,2023-04-29 12:18:02.92,-5.022535,-6.0921264,9.561719,2023-04-29 12:18:06.3,0.53118336,2.7096457,-3.5119157
,,2023-04-29 12:18:06.313,5.8821683,5.1157618,-5.8007374,2023-04-29 12:18:06.388,-0.92935574,0.01056052,0.52594817,,2023-04-29 12:18:02.926,-5.015356,-5.994021,9.683753,2023-04-29 12:18:06.301,1.3151367,3.107728,-3.0075967
,,2023-04-29 12:18:06.331,5.513335,5.1540823,-5.767207,2023-04-29 12:18:06.4,-0.9266926,-0.045365863,0.48706606,,2023-04-29 12:18:02.927,-5.087141,-5.881558,9.810573,2023-04-29 12:18:06.34,1.0831256,2.9709635,-2.2663822
,,2023-04-29 12:18:06.36,5.336104,5.0822315,-5.407954,2023-04-29 12:18:06.42,-0.940541,-0.13910913,0.41675863,,2023-04-29 12:18:02.928,-5.180461,-5.548956,9.781859,2023-04-29 12:18:06.342,0.6764956,3.053999,-1.5788968
,,2023-04-29 12:18:06.387,6.1073003,4.727769,-5.384004,2023-04-29 12:18:06.452,-0.9730316,-0.25042927,0.41729125,,2023-04-29 12:18:02.977,-5.2498527,-5.099105,9.628718,2023-04-29 12:18:06.343,1.0892311,3.0820847,-1.020849
,,2023-04-29 12:18:06.399,6.638994,4.2439747,-5.2019825,2023-04-29 12:18:06.463,-0.9698358,-0.3702715,0.42900917,,2023-04-29 12:18:02.977,-5.2283173,-4.833502,9.432507,2023-04-29 12:18:06.384,1.6826912,2.8549578,-0.47379112
,,2023-04-29 12:18:06.414,5.9540186,4.3397756,-5.264253,2023-04-29 12:18:06.487,-0.92722523,-0.3814568,0.42741126,,2023-04-29 12:18:02.977,-5.1589255,-4.699504,9.090333,2023-04-29 12:18:06.386,1.0452712,2.2138746,0.07326667
,,2023-04-29 12:18:06.449,5.733677,4.646338,-5.1636624,2023-04-29 12:18:06.498,-0.9037894,-0.3660105,0.3688217,,2023-04-29 12:18:03.01,-5.0273204,-4.6779685,8.76491,2023-04-29 12:18:06.438,-0.40785113,1.5581379,0.68504333
,,2023-04-29 12:18:06.462,5.958809,4.967271,-5.264253,2023-04-29 12:18:06.516,-0.96344423,-0.41181684,0.28786162,,2023-04-29 12:18:03.016,-4.8693943,-4.7856455,8.453842,2023-04-29 12:18:06.441,-0.40663,1.1661612,1.1087689
,,2023-04-29 12:18:06.486,6.466553,5.0678616,-5.4366946,2023-04-29 12:18:06.552,-0.9959348,-0.5566928,0.25270787,,2023-04-29 12:18:03.018,-4.7784667,-4.912465,8.1020975,2023-04-29 12:18:06.475,0.21247335,0.9072856,1.1563922
,,2023-04-29 12:18:06.497,6.552774,4.87147,-5.7911572,2023-04-29 12:18:06.567,-0.90272415,-0.4475032,0.20796677,,2023-04-29 12:18:03.019,-4.749753,-4.9722853,7.7120676,2023-04-29 12:18:06.475,-0.66428447,0.2869611,1.0318389
,,2023-04-29 12:18:06.515,6.0498195,4.497847,-5.633086,2023-04-29 12:18:06.586,-0.863842,-0.35375994,0.20104256,,2023-04-29 12:18:03.059,-4.776074,-4.9459643,7.3172517,2023-04-29 12:18:06.479,-1.2736189,-0.42372558,1.2894934
,,2023-04-29 12:18:06.551,5.604346,4.373306,-5.3552637,2023-04-29 12:18:06.595,-0.71790075,-1.0120934,0.35976696,,2023-04-29 12:18:03.065,-4.912465,-4.9531426,7.0133634,2023-04-29 12:18:06.521,0.054950003,-0.5482789,1.570349
,,2023-04-29 12:18:06.567,5.0630717,4.5649076,-6.9551373,2023-04-29 12:18:06.629,-0.62309223,-1.2970517,0.43699864,,2023-04-29 12:18:03.066,-5.178068,-5.1589255,6.9248285,2023-04-29 12:18:06.521,1.6863545,-0.36511225,1.7425256
,,2023-04-29 12:18:06.585,6.207891,5.8342676,-2.7973828,2023-04-29 12:18:06.644,-0.626288,-1.2294073,0.4971861,,2023-04-29 12:18:03.067,-5.6279187,-5.4412785,6.9009004,2023-04-29 12:18:06.565,1.9598835,-0.26498112,1.8060234
,,2023-04-29 12:18:06.594,6.615044,6.437813,-3.2428565,2023-04-29 12:18:06.665,-0.64173436,-0.9812007,0.5094366,,2023-04-29 12:18:03.068,-6.15434,-5.613562,6.9415784,2023-04-29 12:18:06.567,0.56171113,-0.40663,1.7596211
,,2023-04-29 12:18:06.628,6.1073003,6.1216702,-5.623506,2023-04-29 12:18:06.684,-0.5479911,-0.8794679,0.4316723,,2023-04-29 12:18:03.098,-6.558727,-5.5704913,6.9415784,2023-04-29 12:18:06.609,-0.9964267,-0.63619894,1.6472789
,,2023-04-29 12:18:06.644,6.11688,5.225933,-7.0988383,2023-04-29 12:18:06.698,-0.45318252,-0.8570974,0.33313537,,2023-04-29 12:18:03.099,-6.6687965,-5.369494,6.843473,2023-04-29 12:18:06.61,-1.0635878,-0.6471889,1.50563
,,2023-04-29 12:18:06.664,6.8018556,4.368516,-5.9300685,2023-04-29 12:18:06.729,-0.42868143,-0.7979752,0.27188265,,2023-04-29 12:18:03.101,-6.63769,-5.1206403,6.7238317,2023-04-29 12:18:06.655,-0.28574002,-0.46768558,1.29682
,,2023-04-29 12:18:06.683,6.950347,4.358936,-5.4606447,2023-04-29 12:18:06.744,-0.35890663,-0.64564234,0.2431205,,2023-04-29 12:18:03.107,-6.6305118,-5.005785,6.597012,2023-04-29 12:18:06.656,0.51775116,-0.25277,1.1918045
,,2023-04-29 12:18:06.696,6.6533647,4.6511283,-5.824688,2023-04-29 12:18:06.771,-0.2443907,-0.46827585,0.20636888,,2023-04-29 12:18:03.107,-6.5922265,-4.981857,6.4677997,2023-04-29 12:18:06.661,0.96589893,-0.16607112,0.98910004
,,2023-04-29 12:18:06.728,6.480923,4.8044095,-5.7863674,2023-04-29 12:18:06.785,-0.22521593,-0.3484336,0.16482356,,2023-04-29 12:18:03.108,-6.45105,-4.9459643,6.326623,2023-04-29 12:18:06.701,1.020849,-0.15019667,0.8083756
,,2023-04-29 12:18:06.743,6.5336137,5.149292,-5.839058,2023-04-29 12:18:06.81,-0.2678265,-0.31274724,0.16482356,,2023-04-29 12:18:03.144,-6.5539412,-4.8765726,6.204589,2023-04-29 12:18:06.703,0.72534,-0.20636779,0.78273225
,,2023-04-29 12:18:06.767,6.6677346,5.4510646,-6.222261,2023-04-29 12:18:06.828,-0.2214875,-0.29090935,0.17334569,,2023-04-29 12:18:03.144,-5.0679984,-4.5415773,5.369494,2023-04-29 12:18:06.744,0.45425335,-0.23567446,0.8095967
,,2023-04-29 12:18:06.784,6.437813,5.637876,-6.3947024,2023-04-29 12:18:06.85,-0.17035481,-0.1700018,0.1999773,,2023-04-29 12:18:03.145,-7.245467,-5.056034,7.1952176,2023-04-29 12:18:06.749,0.6142189,-0.1526389,0.7522045
,,2023-04-29 12:18:06.809,6.461763,5.982759,-5.982759,2023-04-29 12:18:06.865,-0.16236533,-0.09277013,0.20849942,,2023-04-29 12:18:03.147,-8.745767,-5.383851,8.5423765,2023-04-29 12:18:06.79,0.86576784,-0.026864445,0.70580226
,,2023-04-29 12:18:06.826,6.332432,6.0450296,-6.2031007,2023-04-29 12:18:06.88,-0.12082002,-0.09117223,0.16109514,,2023-04-29 12:18:03.15,-6.111269,-5.029713,8.202596,2023-04-29 12:18:06.797,0.63131446,0.057392225,0.55316335
,,2023-04-29 12:18:06.849,6.4282327,5.910908,-6.452183,2023-04-29 12:18:06.91,-0.05157783,-0.16840391,0.15417093,,2023-04-29 12:18:03.153,-3.5724843,-4.022335,4.666004,2023-04-29 12:18:06.839,0.1746189,-0.098910004,0.43105224
,,2023-04-29 12:18:06.863,6.935977,5.824688,-6.4090724,2023-04-29 12:18:06.927,0.016599096,-0.27173454,0.16429093,,2023-04-29 12:18:03.189,-8.599805,-4.615755,6.5204415,2023-04-29 12:18:06.839,0.26986557,-0.09280445,0.3162678
,,2023-04-29 12:18:06.879,6.3228517,5.9013286,-6.2797413,2023-04-29 12:18:06.948,0.054948617,-0.2919746,0.1456488,,2023-04-29 12:18:03.196,-4.613362,-4.486542,7.1042905,2023-04-29 12:18:06.88,0.6887067,0.070824444,0.18927222
,,2023-04-29 12:18:06.909,6.11688,5.858218,-5.944439,2023-04-29 12:18:06.962,0.073597714,-0.19929549,0.113165036,,2023-04-29 12:18:03.196,-5.716453,-4.240082,4.536792,2023-04-29 12:18:06.883,0.9549089,0.13188,0.19171445
,,2023-04-29 12:18:06.925,6.4090724,5.719307,-6.198311,2023-04-29 12:18:06.995,0.08584826,-0.03524476,0.06895656,,2023-04-29 12:18:03.238,-7.34118,-5.072784,8.145168,2023-04-29 12:18:06.884,0.97078335,0.106236674,0.18316667
,,2023-04-29 12:18:06.947,6.207891,5.527705,-6.456973,2023-04-29 12:18:07.01,0.12313251,-0.022994218,0.048716538,,2023-04-29 12:18:03.279,-3.5294135,-4.4195433,4.453043,2023-04-29 12:18:06.923,0.69481224,0.013432222,0.085477784
,,2023-04-29 12:18:06.961,6.05461,5.484595,-6.696475,2023-04-29 12:18:07.027,0.11940409,-0.014472103,0.018889135,,2023-04-29 12:18:03.28,-8.252846,-5.3479586,7.489535,2023-04-29 12:18:06.924,0.38709223,-0.017095556,-0.0024422223
,,2023-04-29 12:18:06.994,6.2031007,5.8055277,-6.5719337,2023-04-29 12:18:07.045,0.07093456,0.047845867,-0.011470901,,2023-04-29 12:18:03.284,-3.1393833,-4.7976093,5.7810597,2023-04-29 12:18:06.968,0.30649891,-0.06594,-0.070824444
,,2023-04-29 12:18:07.009,6.557564,6.236631,-6.8832865,2023-04-29 12:18:07.076,0.061879806,0.028138475,-0.033841457,,2023-04-29 12:18:03.286,-7.489535,-4.9435716,5.723632,2023-04-29 12:18:06.97,0.66306335,-0.009768889,-0.081814446
,,2023-04-29 12:18:07.026,6.437813,6.318062,-7.074888,2023-04-29 12:18:07.097,0.10342512,-0.06986585,-0.0626036,,2023-04-29 12:18:03.287,-4.85743,-4.802395,7.372287,2023-04-29 12:18:07.014,0.7949434,0.18683001,-0.18194556
,,2023-04-29 12:18:07.044,6.332432,6.1456203,-6.686895,2023-04-29 12:18:07.117,0.12313251,-0.08477955,-0.08337625,,2023-04-29 12:18:03.324,-5.1900325,-4.2687955,4.254439,2023-04-29 12:18:07.015,0.37366003,0.14897557,-0.1965989
,,2023-04-29 12:18:07.075,6.456973,6.1216702,-6.2941117,2023-04-29 12:18:07.127,0.12579568,-0.0048847226,-0.092431,,2023-04-29 12:18:03.328,-7.3627152,-4.8454657,7.9226356,2023-04-29 12:18:07.019,0.21613668,0.10501556,-0.15141778
,,2023-04-29 12:18:07.095,6.452183,6.2701616,-6.725215,2023-04-29 12:18:07.147,0.16361256,0.043052178,-0.09030047,,2023-04-29 12:18:03.33,-3.266203,-3.9218364,4.2855453,2023-04-29 12:18:07.062,0.4249467,0.15141778,-0.0061055557
,,2023-04-29 12:18:07.116,6.4186525,6.3228517,-7.0365677,2023-04-29 12:18:07.178,0.17852625,0.11762069,-0.09136574,,2023-04-29 12:18:03.374,-8.269595,-4.4434714,7.1952176,2023-04-29 12:18:07.063,0.018316668,0.10135223,0.27719223
,,2023-04-29 12:18:07.126,6.447393,6.342012,-6.672525,2023-04-29 12:18:07.196,0.1758631,0.23000608,-0.08497415,,2023-04-29 12:18:03.375,-3.3810585,-3.682554,5.7140603,2023-04-29 12:18:07.104,-0.3712178,-0.08669889,0.34191114
,,2023-04-29 12:18:07.146,6.701265,6.4905033,-6.969507,2023-04-29 12:18:07.21,0.2072884,0.34398937,-0.071125716,,2023-04-29 12:18:03.375,-7.1210403,-3.6993039,5.3479586,2023-04-29 12:18:07.107,-0.09524667,0.007326667,0.17706113
,,2023-04-29 12:18:07.176,6.6102543,6.5336137,-7.3479204,2023-04-29 12:18:07.235,0.23764844,0.45690742,-0.07006045,,2023-04-29 12:18:03.376,-4.6037908,-3.8835511,7.23111,2023-04-29 12:18:07.148,-0.5043189,-0.039075557,0.01099
,,2023-04-29 12:18:07.195,6.4138627,6.351592,-7.0365677,2023-04-29 12:18:07.248,0.27546534,0.5676949,-0.09456153,,2023-04-29 12:18:03.415,-4.692325,-3.6203406,3.8811584,2023-04-29 12:18:07.15,-0.69114894,-0.17339778,-0.05250778
,,2023-04-29 12:18:07.209,6.4138627,6.236631,-6.878496,2023-04-29 12:18:07.266,0.28079167,0.74293095,-0.11107313,,2023-04-29 12:18:03.416,-7.183254,-4.469793,7.580462,2023-04-29 12:18:07.194,-0.4249467,-0.17217667,-0.14164889
,,2023-04-29 12:18:07.234,6.615044,6.11209,-6.758745,2023-04-29 12:18:07.285,0.25256214,0.9639733,-0.0626036,,2023-04-29 12:18:03.419,-2.7278178,-3.723232,4.019942,2023-04-29 12:18:07.194,-0.20514667,-0.14164889,-0.21369445
,,2023-04-29 12:18:07.245,6.7491655,6.0354495,-7.089258,2023-04-29 12:18:07.312,0.25895375,1.1541231,0.008236491,,2023-04-29 12:18:03.42,-7.8484583,-4.587041,6.5228343,2023-04-29 12:18:07.2,-0.36267,-0.16118668,-0.2075889
,,2023-04-29 12:18:07.265,6.3803325,6.3084817,-7.2760696,2023-04-29 12:18:07.333,0.25575796,1.319239,0.023150193,,2023-04-29 12:18:03.421,-2.7278178,-4.046263,5.460421,2023-04-29 12:18:07.24,-0.46768558,-0.20514667,-0.20026223
,,2023-04-29 12:18:07.284,6.3084817,6.4186525,-6.7874856,,,,,,2023-04-29 12:18:03.461,-6.4127645,-4.338187,4.962714,2023-04-29 12:18:07.241,-0.6655056,-0.21247335,-0.17217667
,,2023-04-29 12:18:07.31,7.27128,5.944439,-6.466553,,,,,,2023-04-29 12:18:03.463,-4.1587257,-4.7401814,7.331609,2023-04-29 12:18:07.286,-1.1673822,-0.40174556,-0.21003112
,,2023-04-29 12:18:07.331,6.945557,5.8677983,-7.117998,,,,,,2023-04-29 12:18:03.464,-4.517649,-4.6468616,4.429115,2023-04-29 12:18:07.288,-1.5178412,-0.5336256,-0.26376
,,2023-04-29 12:18:07.358,6.9168167,5.8917484,-6.9790874,,,,,,2023-04-29 12:18:03.471,-7.1976104,-5.5800624,8.281559,2023-04-29 12:18:07.333,-1.56058,-0.53484666,-0.34435335
,,,,,,,,,,,2023-04-29 12:18:03.471,-3.2733815,-4.618148,4.723432,2023-04-29 12:18:07.335,-1.1783723,-0.41762,-0.39808223
ea91fd80-ae07-49d4-a8e8-d2a94aab2600,2e2apickup,2023-04-29 12:18:28.091,10.202784,-0.30177248,-0.7232959,2023-04-29 12:18:27.862,0.5669309,-0.22644159,0.21554339,2e2ac25e-545d-4830-b9cd-d301e440dc18,2023-04-29 12:18:27.893,-1.8592232,-9.84168,-3.048456,2023-04-29 12:18:27.893,-0.037854444,0.16118668,-0.007326667
,,2023-04-29 12:18:28.091,9.287886,-0.19160157,0.1820215,2023-04-29 12:18:28.091,0.3618675,-0.09701197,0.17879176,,2023-04-29 12:18:27.939,-2.0458634,-10.147961,-3.5581272,2023-04-29 12:18:27.894,0.015874445,0.38465002,-0.11478445
,,2023-04-29 12:18:28.091,9.359736,-0.1580713,0.5556446,2023-04-29 12:18:28.091,0.09075769,-0.008062387,0.16920438,,2023-04-29 12:18:27.983,-2.0291135,-9.475577,-3.4767714,2023-04-29 12:18:27.938,0.28085557,0.5653745,-0.22102112
,,2023-04-29 12:18:28.091,9.704619,-0.17244141,-0.20118165,2023-04-29 12:18:28.091,0.014591284,-0.14015518,0.16867176,,2023-04-29 12:18:27.984,-2.0315065,-8.394022,-3.1130621,2023-04-29 12:18:27.939,0.48600224,0.6972545,-0.30405667
,,2023-04-29 12:18:28.091,9.690249,0.019160157,-1.2693604,2023-04-29 12:18:28.091,0.10993245,-0.28662905,0.15375805,,2023-04-29 12:18:28.029,-2.4191437,-8.166703,-2.928815,2023-04-29 12:18:27.983,0.49577114,0.8205867,-0.38953447
,,2023-04-29 12:18:28.092,9.527389,0.3784131,-0.7807764,2023-04-29 12:18:28.092,0.14987987,-0.25200796,0.13564856,,2023-04-29 12:18:28.03,-2.5938199,-8.188239,-2.3976083,2023-04-29 12:18:27.984,0.29673,0.9500245,-0.46035892
,,2023-04-29 12:18:28.092,9.7142,0.60354495,-0.2921924,2023-04-29 12:18:28.092,0.04015763,-0.0959467,0.11807168,,2023-04-29 12:18:28.074,-2.7038896,-8.257631,-2.4670002,2023-04-29 12:18:27.985,0.078151114,1.0452712,-0.48722336
,,2023-04-29 12:18:28.092,10.059082,0.7041358,-0.9148975,2023-04-29 12:18:28.092,-0.016834019,-0.033096105,0.101560086,,2023-04-29 12:18:28.127,-2.804388,-8.140383,-2.9479575,2023-04-29 12:18:28.029,-0.03174889,1.0977789,-0.45303226
,,2023-04-29 12:18:28.092,10.3512745,0.728086,-0.90052736,2023-04-29 12:18:28.092,-0.07009724,-0.011790813,0.07492848,,2023-04-29 12:18:28.132,-2.9910283,-8.188239,-3.0125637,2023-04-29 12:18:28.029,-0.018316668,1.1331911,-0.39564002
,,2023-04-29 12:18:28.092,10.303374,0.7807764,-0.6658155,2023-04-29 12:18:28.092,-0.2677038,0.10112722,0.048296865,,2023-04-29 12:18:28.166,-3.0963125,-7.891529,-2.6321049,2023-04-29 12:18:28.074,0.09036223,1.1527289,-0.35656446
,,2023-04-29 12:18:28.092,10.150093,0.75203615,-0.5556446,2023-04-29 12:18:28.092,-0.45519036,0.21617578,0.022730518,,2023-04-29 12:18:28.217,-3.022135,-8.085348,-2.4933212,2023-04-29 12:18:28.075,0.2283478,1.1991311,-0.32115224
,,2023-04-29 12:18:28.123,9.857901,0.64186525,-0.5939649,2023-04-29 12:18:28.092,-0.5665105,0.28222215,0.016338931,,2023-04-29 12:18:28.218,-3.0149565,-8.12124,-2.5938199,2023-04-29 12:18:28.127,0.30649891,1.2699556,-0.24178001
,,2023-04-29 12:18:28.124,9.627979,0.5460645,0.20597169,2023-04-29 12:18:28.124,-0.6527969,0.26730847,0.02059999,,2023-04-29 12:18:28.255,-2.8402805,-7.8963146,-2.4909284,2023-04-29 12:18:28.132,0.26498112,1.3139156,-0.10135223
,,2023-04-29 12:18:28.15,9.718989,0.4981641,0.15328126,2023-04-29 12:18:28.124,-0.66451484,0.21297999,0.008349448,,2023-04-29 12:18:28.299,-2.8307092,-7.8173513,-2.7278178,2023-04-29 12:18:28.163,0.15752333,1.3444434,0.0024422223
,,2023-04-29 12:18:28.167,9.992022,0.53169435,-0.3544629,2023-04-29 12:18:28.151,-0.50898623,0.13255252,-0.016684268,,2023-04-29 12:18:28.344,-2.9312077,-7.63789,-2.6823542,2023-04-29 12:18:28.163,0.05250778,1.3334534,0.085477784
,,2023-04-29 12:18:28.187,10.150093,0.79993653,-0.71371585,2023-04-29 12:18:28.168,-0.41257977,0.067571394,-0.053968523,,2023-04-29 12:18:28.345,-3.0652058,-7.8628154,-3.1082766,2023-04-29 12:18:28.166,0.068382226,1.3175789,0.13432223
,,2023-04-29 12:18:28.202,10.145303,1.0538087,-1.341211,2023-04-29 12:18:28.188,-0.37902394,0.07822403,-0.113623336,,2023-04-29 12:18:28.389,-3.1609187,-7.884351,-3.2207394,2023-04-29 12:18:28.217,0.16485001,1.3432223,0.15874445
,,2023-04-29 12:18:28.228,10.078242,1.22146,-1.4130616,2023-04-29 12:18:28.203,-0.40192714,0.1107146,-0.17540866,,2023-04-29 12:18:28.389,-3.2853456,-8.343773,-3.6586258,2023-04-29 12:18:28.217,0.25277,1.3481067,0.1965989
,,2023-04-29 12:18:28.245,9.968072,1.2981006,-0.8286768,2023-04-29 12:18:28.228,-0.58728313,0.18794627,-0.22973715,,2023-04-29 12:18:28.433,-3.6681972,-9.29133,-4.3932223,2023-04-29 12:18:28.255,0.26009667,1.3420012,0.21735778
,,2023-04-29 12:18:28.266,9.814791,1.3220508,-0.38320315,2023-04-29 12:18:28.245,-0.80885816,0.24493793,-0.2766088,,2023-04-29 12:18:28.479,-3.7064822,-9.205189,-4.453043,2023-04-29 12:18:28.256,0.24910668,1.32979,0.23323223
,,2023-04-29 12:18:28.281,10.011182,1.22625,-0.06227051,2023-04-29 12:18:28.266,-0.8834245,0.22150244,-0.30110782,,2023-04-29 12:18:28.524,-3.842873,-9.104691,-4.314259,2023-04-29 12:18:28.299,0.25521225,1.3273479,0.2613178
,,2023-04-29 12:18:28.313,10.447076,0.977168,-0.22992188,2023-04-29 12:18:28.283,-0.81791073,0.17250027,-0.2659541,,2023-04-29 12:18:28.525,-3.4480574,-8.755338,-4.5248275,2023-04-29 12:18:28.299,0.23933779,1.2772822,0.31016225
,,2023-04-29 12:18:28.327,10.451866,0.7568262,-0.7807764,2023-04-29 12:18:28.314,-0.7497338,0.14746656,-0.22600667,,2023-04-29 12:18:28.569,-3.2877383,-8.671589,-4.613362,2023-04-29 12:18:28.344,0.11966889,1.2333223,0.3931978
,,2023-04-29 12:18:28.352,10.2315235,0.7759864,-0.42152345,2023-04-29 12:18:28.328,-0.7971381,0.19593608,-0.2233435,,2023-04-29 12:18:28.57,-3.1226335,-8.463413,-4.5535417,2023-04-29 12:18:28.345,-0.01099,1.2137845,0.42250445
,,2023-04-29 12:18:28.362,10.2315235,0.6993457,0.5364844,2023-04-29 12:18:28.352,-0.88182664,0.2832878,-0.24251826,,2023-04-29 12:18:28.615,-2.9647074,-8.7984085,-4.831109,2023-04-29 12:18:28.346,0.007326667,1.1966889,0.46035892
,,2023-04-29 12:18:28.383,10.178833,0.8382569,1.4897022,2023-04-29 12:18:28.362,-0.8338897,0.2966036,-0.25689936,,2023-04-29 12:18:28.658,-2.8402805,-9.348758,-5.029713,2023-04-29 12:18:28.389,0.024422223,1.1624979,0.48844448
,,2023-04-29 12:18:28.413,10.729688,1.1304493,2.2369483,2023-04-29 12:18:28.384,-0.6155105,0.21883927,-0.23293088,,2023-04-29 12:18:28.66,-2.751746,-9.458828,-5.048856,2023-04-29 12:18:28.389,0.013432222,1.1795933,0.48356003
,,2023-04-29 12:18:28.426,11.5823145,1.2837305,2.069297,2023-04-29 12:18:28.415,-0.3289544,0.06810435,-0.17167819,,2023-04-29 12:18:28.704,-2.5292134,-9.403793,-4.895715,2023-04-29 12:18:28.433,0.11478445,1.2186689,0.46280113
,,2023-04-29 12:18:28.445,11.357183,1.6525636,0.3784131,2023-04-29 12:18:28.427,-0.10524886,-0.08209794,-0.19085294,,2023-04-29 12:18:28.749,-2.3186452,-8.965906,-4.6899323,2023-04-29 12:18:28.435,0.29062447,1.2150056,0.4908867
,,2023-04-29 12:18:28.463,10.753638,1.8250049,0.16286133,2023-04-29 12:18:28.445,-0.06423618,-0.12204535,-0.25317094,,2023-04-29 12:18:28.75,-2.1511476,-8.712267,-4.546363,2023-04-29 12:18:28.435,0.31993112,1.2186689,0.49943447
,,2023-04-29 12:18:28.495,10.159674,1.2933106,1.6046631,2023-04-29 12:18:28.464,-0.27036485,0.027624302,-0.2643562,,2023-04-29 12:18:28.794,-2.0027926,-8.508878,-4.3070807,2023-04-29 12:18:28.523,0.36755446,1.1454023,0.45791668
,,2023-04-29 12:18:28.51,10.015972,0.41194338,2.692002,2023-04-29 12:18:28.495,-0.5265609,0.23002455,-0.25849724,,2023-04-29 12:18:28.839,-2.0267208,-8.279166,-4.24726,2023-04-29 12:18:28.524,0.47745445,1.053819,0.4151778
,,2023-04-29 12:18:28.533,10.106983,-0.244292,2.2944288,2023-04-29 12:18:28.51,-0.73322225,0.26358038,-0.24677932,,2023-04-29 12:18:28.839,-1.8807586,-8.042277,-4.208975,2023-04-29 12:18:28.524,0.3944189,1.0086378,0.35168
,,2023-04-29 12:18:28.545,10.365645,-0.7711963,2.2896388,2023-04-29 12:18:28.533,-0.921774,0.15545604,-0.25050777,,2023-04-29 12:18:28.884,-1.8903298,-8.066205,-4.4171505,2023-04-29 12:18:28.526,0.34557447,0.90240115,0.34313223
,,2023-04-29 12:18:28.565,10.691368,-1.096919,2.9698243,2023-04-29 12:18:28.546,-1.05653,0.10592124,-0.2265393,,2023-04-29 12:18:28.931,-1.9549361,-8.188239,-4.625326,2023-04-29 12:18:28.57,0.26498112,0.7558678,0.38465002
,,2023-04-29 12:18:28.593,10.691368,-0.7807764,2.8931837,2023-04-29 12:18:28.565,-1.0320289,0.06650645,-0.22760457,,2023-04-29 12:18:28.932,-2.201397,-8.427522,-4.7282176,2023-04-29 12:18:28.57,0.10013112,0.6056711,0.44326335
,,2023-04-29 12:18:28.609,10.490186,-0.44547364,2.8788135,2023-04-29 12:18:28.594,-0.8674455,0.006319013,-0.24944247,,2023-04-29 12:18:28.973,-2.3449662,-8.513663,-4.733003,2023-04-29 12:18:28.571,-0.0048844446,0.44692668,0.49943447
,,2023-04-29 12:18:28.627,10.284214,-0.6610254,3.6021094,2023-04-29 12:18:28.61,-0.6847527,0.049994856,-0.21535403,,2023-04-29 12:18:29.019,-2.4023938,-8.554341,-4.807181,2023-04-29 12:18:28.616,-0.06349778,0.3370267,0.54339445
,,2023-04-29 12:18:28.645,9.958491,-0.9963282,4.1864944,2023-04-29 12:18:28.627,-0.55319256,0.14427076,-0.13332866,,2023-04-29 12:18:29.02,-2.603391,-8.762517,-5.113462,2023-04-29 12:18:28.616,-0.07326667,0.24666445,0.54461557
,,2023-04-29 12:18:28.676,9.75252,-0.7089258,3.415298,2023-04-29 12:18:28.646,-0.3683692,0.09739912,-0.044379085,,2023-04-29 12:18:29.066,-2.7182465,-8.776874,-5.1349974,2023-04-29 12:18:28.66,-0.058613338,0.16851334,0.52141446
,,2023-04-29 12:18:28.693,9.73815,-0.21555176,3.0416749,2023-04-29 12:18:28.679,-0.0530509,-0.025106288,0.03125469,,2023-04-29 12:18:29.109,-2.5028925,-8.228917,-4.3764725,2023-04-29 12:18:28.66,-0.07448778,0.13676445,0.46280113
,,2023-04-29 12:18:28.71,9.6758795,0.32572266,2.3950195,2023-04-29 12:18:28.693,0.14668618,-0.07038003,0.041907333,,2023-04-29 12:18:29.111,-1.8855443,-7.6713896,-3.426522,2023-04-29 12:18:28.703,-0.058613338,0.10745778,0.42250445
,,2023-04-29 12:18:28.728,9.584868,0.79993653,2.0549269,2023-04-29 12:18:28.71,0.18290517,-0.036291566,0.020069413,,2023-04-29 12:18:29.154,-1.8017955,-8.0614195,-3.4719856,2023-04-29 12:18:28.704,-0.037854444,0.08792,0.37854445
,,2023-04-29 12:18:28.748,9.211246,0.8765772,2.6776319,2023-04-29 12:18:28.728,0.040159736,0.0457338,-0.016682211,,2023-04-29 12:18:29.155,-2.091327,-8.415557,-3.696911,2023-04-29 12:18:28.749,-0.04151778,0.07448778,0.32725778
,,2023-04-29 12:18:28.776,9.259146,0.9148975,2.2944288,2023-04-29 12:18:28.749,-0.06317091,0.08887701,-0.029465385,,2023-04-29 12:18:29.199,-2.656033,-8.724232,-3.9433718,2023-04-29 12:18:28.749,-0.03297,0.06960334,0.28574002
,,2023-04-29 12:18:28.792,9.153765,1.0777588,1.8106349,2023-04-29 12:18:28.777,0.0034081142,0.009514807,-0.016149577,,2023-04-29 12:18:29.244,-2.8235307,-9.312865,-3.9816568,2023-04-29 12:18:28.751,-0.0048844446,0.057392225,0.24300112
,,2023-04-29 12:18:28.811,9.043594,1.0442286,2.304009,2023-04-29 12:18:28.793,-0.019495072,0.016971657,-0.02893275,,2023-04-29 12:18:29.288,-2.5148566,-9.296116,-3.359523,2023-04-29 12:18:28.795,0.03297,0.045181114,0.19293556
,,2023-04-29 12:18:28.829,9.148975,0.79035646,2.562671,2023-04-29 12:18:28.811,-0.16170788,0.051592752,-0.018812738,,2023-04-29 12:18:29.29,-2.1487548,-8.822337,-2.8426733,2023-04-29 12:18:28.795,0.068382226,0.03052778,0.12577444
,,2023-04-29 12:18:28.859,9.445957,0.46942386,2.42855,2023-04-29 12:18:28.831,-0.2197648,-0.03948736,0.0014272858,,2023-04-29 12:18:29.333,-1.442872,-8.513663,-2.8235307,2023-04-29 12:18:28.839,0.11356334,-0.0012211112,0.06227667
,,2023-04-29 12:18:28.875,9.513018,0.40715334,2.327959,2023-04-29 12:18:28.86,-0.23361324,-0.117251664,0.010482034,,2023-04-29 12:18:29.381,-1.3471591,-9.032906,-3.495914,2023-04-29 12:18:28.841,0.13310112,-0.029306669,0.015874445
,,2023-04-29 12:18:28.895,9.479487,0.488584,2.5866213,2023-04-29 12:18:28.877,-0.2677017,-0.10606639,0.015808355,,2023-04-29 12:18:29.382,-2.0817556,-9.745967,-4.3525443,2023-04-29 12:18:28.884,0.14531223,-0.06227667,-0.0061055557
,,2023-04-29 12:18:28.91,9.158555,0.46463382,3.0991554,2023-04-29 12:18:28.895,-0.28208277,-0.0831632,0.03338522,,2023-04-29 12:18:29.423,-2.2995026,-9.099904,-3.9720855,2023-04-29 12:18:28.884,0.13676445,-0.10135223,-0.018316668
,,2023-04-29 12:18:28.931,9.216036,0.60354495,2.7207422,2023-04-29 12:18:28.91,-0.1835458,-0.09168532,0.06267999,,2023-04-29 12:18:29.468,-2.1104696,-8.128419,-3.3930225,2023-04-29 12:18:28.932,0.13432223,-0.15141778,-0.04151778
,,2023-04-29 12:18:28.958,10.705738,0.9867481,1.7579445,2023-04-29 12:18:28.931,-0.024821393,-0.11458851,0.15269485,,2023-04-29 12:18:29.47,-1.9501505,-8.126026,-3.7615173,2023-04-29 12:18:28.932,0.12943779,-0.19049335,-0.085477784
,,2023-04-29 12:18:28.975,11.778707,1.9974464,0.6658155,2023-04-29 12:18:28.959,-0.033876143,-0.12896958,0.21341492,,2023-04-29 12:18:29.516,-1.8855443,-7.9800634,-4.168297,2023-04-29 12:18:28.932,0.13310112,-0.21980001,-0.15996556
,,2023-04-29 12:18:28.993,12.712764,2.6201515,0.28740236,2023-04-29 12:18:28.975,-0.18887213,-0.19980966,0.13405272,,2023-04-29 12:18:29.516,-1.9740787,-7.920243,-4.4243293,2023-04-29 12:18:28.974,0.11112112,-0.23445335,-0.23567446
,,2023-04-29 12:18:29.012,10.796748,1.7771046,-0.34488282,2023-04-29 12:18:28.994,-0.30924702,-0.12577377,0.02379784,,2023-04-29 12:18:29.558,-1.9190438,-8.293523,-4.5320063,2023-04-29 12:18:28.974,0.06716111,-0.23689556,-0.29184556
,,2023-04-29 12:18:29.042,8.301138,0.9436377,0.6466553,2023-04-29 12:18:29.013,-0.5377462,0.09100754,-0.09071809,,2023-04-29 12:18:29.603,-1.942972,-8.480164,-4.4913282,2023-04-29 12:18:29.019,0.009768889,-0.23811668,-0.31016225
,,2023-04-29 12:18:29.058,7.927515,0.023950197,2.42376,2023-04-29 12:18:29.042,-1.0405511,0.326431,0.004623079,,2023-04-29 12:18:29.605,-2.0003998,-8.673982,-4.5320063,2023-04-29 12:18:29.021,-0.059834447,-0.24666445,-0.2942878
,,2023-04-29 12:18:29.081,8.5502205,-0.9388477,2.0309765,2023-04-29 12:18:29.058,-1.2679851,0.36264998,0.11860637,,2023-04-29 12:18:29.649,-1.9166509,-8.719446,-4.776074,2023-04-29 12:18:29.065,-0.11966889,-0.24055889,-0.27108666
,,2023-04-29 12:18:29.098,9.445957,-1.2549903,1.2789404,2023-04-29 12:18:29.081,-1.0863575,0.18421818,0.13511798,,2023-04-29 12:18:29.694,-1.7754744,-8.331808,-4.5631127,2023-04-29 12:18:29.066,-0.20148334,-0.22102112,-0.25399113
,,2023-04-29 12:18:29.125,10.207574,-0.67539555,1.0250684,2023-04-29 12:18:29.099,-0.79394233,-0.040552624,0.10848636,,2023-04-29 12:18:29.696,-1.727618,-8.312666,-4.5726843,2023-04-29 12:18:29.109,-0.28329778,-0.22102112,-0.22590557
,,2023-04-29 12:18:29.142,10.571617,0.35925296,1.0298585,2023-04-29 12:18:29.125,-0.46211246,-0.14228538,0.0728,,2023-04-29 12:18:29.743,-1.8520447,-8.334201,-4.5152564,2023-04-29 12:18:29.11,-0.37366003,-0.10379445,-0.2625389
,,2023-04-29 12:18:29.157,10.657837,1.1112891,1.0633887,2023-04-29 12:18:29.142,-0.18141527,-0.121512726,0.091974765,,2023-04-29 12:18:29.783,-1.9884356,-8.269595,-4.5128636,2023-04-29 12:18:29.112,-0.30405667,0.03052778,-0.29673
,,2023-04-29 12:18:29.179,10.686578,1.092129,0.8143067,2023-04-29 12:18:29.158,-0.029615084,-0.025106288,0.19743595,,2023-04-29 12:18:29.784,-1.9932213,-8.260024,-4.5559344,2023-04-29 12:18:29.155,-0.09280445,0.14164889,-0.28574002
,,2023-04-29 12:18:29.194,10.720108,0.5843848,0.5843848,2023-04-29 12:18:29.18,-0.029615084,0.02975483,0.29970133,,2023-04-29 12:18:29.831,-1.9357935,-8.276773,-4.634897,2023-04-29 12:18:29.155,0.07204556,0.22468445,-0.20881
,,2023-04-29 12:18:29.224,10.480606,0.15328126,0.5604346,2023-04-29 12:18:29.195,-0.1159015,0.057451706,0.3550951,,2023-04-29 12:18:29.874,-1.8975084,-8.269595,-4.587041,2023-04-29 12:18:29.199,0.04396,0.30161446,-0.109900005
,,2023-04-29 12:18:29.241,10.164463,-0.05269043,0.7041358,2023-04-29 12:18:29.228,-0.16170788,0.07449594,0.36095405,,2023-04-29 12:18:29.881,-1.9310079,-8.279166,-4.634897,2023-04-29 12:18:29.199,-0.109900005,0.37854445,-0.046402223
,,2023-04-29 12:18:29.265,10.102193,-0.06706055,0.6610254,2023-04-29 12:18:29.241,-0.1553163,0.057451706,0.31674555,,2023-04-29 12:18:29.919,-1.9716859,-8.499306,-4.7425747,2023-04-29 12:18:29.244,-0.25399113,0.45059,-0.047623336
,,2023-04-29 12:18:29.276,10.217154,0.07664063,0.7711963,2023-04-29 12:18:29.265,-0.2000574,0.014308495,0.25069916,,2023-04-29 12:18:29.964,-2.105684,-8.566305,-4.7282176,2023-04-29 12:18:29.245,-0.25643334,0.50554,-0.047623336
,,2023-04-29 12:18:29.297,10.6817875,0.21555176,0.86220706,2023-04-29 12:18:29.297,-0.30285138,0.025494408,0.19637464,,2023-04-29 12:18:30.009,-2.1080768,-8.566305,-4.761717,2023-04-29 12:18:29.289,-0.23201112,0.52996224,-0.037854444
,,2023-04-29 12:18:29.316,10.873389,-0.05269043,1.22625,2023-04-29 12:18:29.297,-0.32735246,0.03614705,0.16654724,,2023-04-29 12:18:30.011,-2.0003998,-8.355737,-4.709075,2023-04-29 12:18:29.289,-0.20392556,0.55438447,-0.036633335
,,2023-04-29 12:18:29.34,10.312955,-0.52690434,1.4944923,2023-04-29 12:18:29.317,-0.28793767,0.16238089,0.19690727,,2023-04-29 12:18:30.053,-2.0386848,-8.30788,-4.7449675,2023-04-29 12:18:29.29,-0.11844778,0.58613336,-0.02198
,,2023-04-29 12:18:29.357,10.044712,-0.40715334,1.585503,2023-04-29 12:18:29.341,-0.34865773,0.34081268,0.26721472,,2023-04-29 12:18:30.054,-2.0673988,-8.202596,-4.7210393,2023-04-29 12:18:29.334,-0.047623336,0.59468114,0.04396
,,2023-04-29 12:18:29.379,9.982442,0.31135255,1.9351759,2023-04-29 12:18:29.358,-0.6000601,0.38981485,0.252301,,2023-04-29 12:18:30.099,-2.1272194,-8.140383,-4.7138605,2023-04-29 12:18:29.334,-0.03174889,0.58979666,0.19904111
,,2023-04-29 12:18:29.407,9.872271,0.89573735,1.7531544,2023-04-29 12:18:29.38,-0.7582519,0.28222314,0.13245878,,2023-04-29 12:18:30.144,-2.1750758,-8.152347,-4.6899323,2023-04-29 12:18:29.382,0.059834447,0.58491224,0.34069002
,,2023-04-29 12:18:29.423,9.80521,0.732876,1.6094532,2023-04-29 12:18:29.408,-0.56970006,0.16184826,0.050433405,,2023-04-29 12:18:30.145,-2.2444677,-8.236095,-4.74736,2023-04-29 12:18:29.382,0.26864445,0.6032289,0.3284789
,,2023-04-29 12:18:29.441,9.72378,0.15328126,1.5950831,2023-04-29 12:18:29.423,-0.3097756,0.16238089,0.052563936,,2023-04-29 12:18:30.195,-2.2325034,-8.240881,-4.76411,2023-04-29 12:18:29.423,0.42128336,0.62154555,0.20392556
,,2023-04-29 12:18:29.458,9.70941,-0.31135255,1.6908839,2023-04-29 12:18:29.441,-0.28687242,0.19327356,0.090380825,,2023-04-29 12:18:30.233,-2.2636101,-8.331808,-4.8263235,2023-04-29 12:18:29.425,0.35900667,0.54461557,0.07448778
,,2023-04-29 12:18:29.49,9.81958,-0.52690434,1.710044,2023-04-29 12:18:29.459,-0.42429152,0.16344616,0.08292397,,2023-04-29 12:18:30.235,-2.1367905,-8.257631,-4.847859,2023-04-29 12:18:29.469,0.2075889,0.4566956,-0.008547778
,,2023-04-29 12:18:29.506,9.934542,-0.45026368,1.7339942,2023-04-29 12:18:29.491,-0.49566424,0.10858504,0.039780762,,2023-04-29 12:18:30.279,-2.103291,-8.310273,-4.8789654,2023-04-29 12:18:29.47,0.20636779,0.39808223,-0.03297
,,2023-04-29 12:18:29.524,10.015972,-0.30177248,1.8633252,2023-04-29 12:18:29.507,-0.47169578,0.10485661,0.006757563,,2023-04-29 12:18:30.37,-2.0291135,-8.319844,-4.9172506,2023-04-29 12:18:29.471,0.26009667,0.35290113,-0.04029667
,,2023-04-29 12:18:29.542,10.073453,-0.1820215,2.0309765,2023-04-29 12:18:29.524,-0.4306831,0.14480403,-0.0044277133,,2023-04-29 12:18:30.372,-1.9669002,-8.398808,-4.895715,2023-04-29 12:18:29.516,0.22712667,0.27719223,-0.015874445
,,2023-04-29 12:18:29.562,10.063872,-0.10538086,2.1698878,2023-04-29 12:18:29.543,-0.4056494,0.17303354,-0.0118845645,,2023-04-29 12:18:30.414,-1.9046868,-8.4012,-4.9316072,2023-04-29 12:18:29.516,0.068382226,0.20514667,-0.013432222
,,2023-04-29 12:18:29.579,10.044712,-0.16286133,2.1603076,2023-04-29 12:18:29.563,-0.3912683,0.16344616,-0.016145622,,2023-04-29 12:18:30.415,-1.8281165,-8.439486,-4.843073,2023-04-29 12:18:29.558,-0.047623336,0.1526389,0.0048844446
,,2023-04-29 12:18:29.599,9.977652,-0.29698244,2.179468,2023-04-29 12:18:29.579,-0.37475672,0.12190084,-0.017210886,,2023-04-29 12:18:30.416,-1.7730815,-8.4705925,-4.814359,2023-04-29 12:18:29.56,-0.09402556,0.14653334,0.015874445
,,2023-04-29 12:18:29.628,9.915381,-0.4023633,2.2848487,2023-04-29 12:18:29.6,-0.36250618,0.0931387,-0.033722486,,2023-04-29 12:18:30.459,-1.7994026,-8.405986,-4.802395,2023-04-29 12:18:29.603,-0.11844778,0.15141778,0.02198
,,2023-04-29 12:18:29.64,9.905801,-0.37362307,2.2704787,2023-04-29 12:18:29.628,-0.3268198,0.06490919,-0.06141936,,2023-04-29 12:18:30.503,-1.8329022,-8.422736,-4.833502,2023-04-29 12:18:29.604,-0.14409111,0.13920668,0.024422223
,,2023-04-29 12:18:29.673,9.910591,-0.25387207,2.198628,2023-04-29 12:18:29.641,-0.24745762,0.034549154,-0.09124677,,2023-04-29 12:18:30.507,-1.861616,-8.382058,-4.725825,2023-04-29 12:18:29.605,-0.11600556,0.13920668,0.017095556
,,2023-04-29 12:18:29.695,9.920172,-0.16286133,2.1315675,2023-04-29 12:18:29.673,-0.16809541,0.012711234,-0.11201942,,2023-04-29 12:18:30.549,-1.8017955,-8.377272,-4.7545385,2023-04-29 12:18:29.649,-0.008547778,0.14164889,0.015874445
,,2023-04-29 12:18:29.716,9.862691,-0.033530276,2.0932472,2023-04-29 12:18:29.696,-0.12441956,0.007384912,-0.11841101,,2023-04-29 12:18:30.594,-1.8041883,-8.300702,-4.6803613,2023-04-29 12:18:29.649,0.06227667,0.15752333,0.02075889
,,2023-04-29 12:18:29.729,9.843531,0.10538086,2.0501368,2023-04-29 12:18:29.716,-0.10950586,-0.0011372035,-0.12054154,,2023-04-29 12:18:30.597,-1.7467605,-8.209774,-4.627719,2023-04-29 12:18:29.695,0.023201112,0.17584,0.026864445
,,2023-04-29 12:18:29.743,9.944121,0.12933107,2.0453467,2023-04-29 12:18:29.73,-0.112701654,-0.0032677324,-0.11841101,,2023-04-29 12:18:30.643,-1.7060826,-8.212168,-4.6396832,2023-04-29 12:18:29.695,-0.0012211112,0.19293556,0.037854444
,,2023-04-29 12:18:29.773,10.0063925,0.033530276,2.064507,2023-04-29 12:18:29.743,-0.1329417,0.012178602,-0.10509521,,2023-04-29 12:18:30.644,-1.753939,-8.157132,-4.6731825,2023-04-29 12:18:29.739,0.035412222,0.20636779,0.058613338
,,2023-04-29 12:18:29.789,9.963282,-0.10538086,2.1267774,2023-04-29 12:18:29.774,-0.14998592,0.017504925,-0.09337729,,2023-04-29 12:18:30.684,-1.8568304,-8.19781,-4.601398,2023-04-29 12:18:29.744,0.081814446,0.20881,0.07693
,,2023-04-29 12:18:29.806,9.924961,-0.13891114,2.1411476,2023-04-29 12:18:29.789,-0.1579694,0.011114278,-0.094436705,,2023-04-29 12:18:30.729,-1.8927227,-8.281559,-4.6707897,2023-04-29 12:18:29.745,0.068382226,0.20881,0.08059334
,,2023-04-29 12:18:29.823,9.920172,-0.12933107,2.1363575,2023-04-29 12:18:29.807,-0.16009992,0.015907967,-0.09550197,,2023-04-29 12:18:30.777,-1.9214365,-8.252846,-4.625326,2023-04-29 12:18:29.784,0.035412222,0.18927222,0.09036223
,,2023-04-29 12:18:29.856,9.920172,-0.14370118,2.1507277,2023-04-29 12:18:29.824,-0.15370834,0.024430083,-0.093371436,,2023-04-29 12:18:30.778,-1.8831514,-8.331808,-4.6468616,2023-04-29 12:18:29.785,0.008547778,0.1746189,0.11478445
,,2023-04-29 12:18:29.877,9.944121,-0.05748047,2.1603076,2023-04-29 12:18:29.856,-0.15317571,0.02602798,-0.10189355,,2023-04-29 12:18:30.818,-1.861616,-8.377272,-4.5798626,2023-04-29 12:18:29.83,-0.012211111,0.17706113,0.12455334
,,2023-04-29 12:18:29.891,9.944121,0.12933107,2.1603076,2023-04-29 12:18:29.878,-0.16223046,0.031886935,-0.114144094,,2023-04-29 12:18:30.822,-1.8664017,-8.477771,-4.7042894,2023-04-29 12:18:29.831,-0.019537779,0.15874445,0.13432223
